"","subid","gender","age","language","trial.num","context.condition","item","response","correct","rt","text.condition","image.condition"
"1",1,"NA","55","English","1","8","carrot","FALSE","0","970","negative","alt"
"2",1,"NA","55","English","2","5","strawberry","TRUE","1","1430","positive","item"
"3",1,"NA","55","English","3","6","shirt","FALSE","1","1340","negative","item"
"4",1,"NA","55","English","4","1","bus","FALSE","1","1173","positive","alt"
"5",1,"NA","55","English","5","1","frog","TRUE","1","891","positive","item"
"6",1,"NA","55","English","6","0","fork","TRUE","1","909","positive","item"
"7",1,"NA","55","English","7","6","duck","FALSE","1","924","positive","alt"
"8",1,"NA","55","English","8","8","shoe","FALSE","1","1205","negative","item"
"9",1,"NA","55","English","9","0","crayon","FALSE","1","1304","positive","alt"
"10",1,"NA","55","English","10","8","pig","TRUE","1","596","positive","item"
"11",1,"NA","55","English","11","1","guitar","TRUE","1","1088","negative","alt"
"12",1,"NA","55","English","12","2","cake","FALSE","1","1371","negative","item"
"13",1,"NA","55","English","13","5","horse","FALSE","1","1319","positive","alt"
"14",1,"NA","55","English","14","2","lion","TRUE","1","889","positive","item"
"15",1,"NA","55","English","15","5","phone","TRUE","1","1401","negative","alt"
"16",1,"NA","55","English","16","1","cow","FALSE","1","963","negative","item"
"17",1,"NA","55","English","17","5","apple","FALSE","1","960","negative","item"
"18",1,"NA","55","English","18","2","car","TRUE","1","1024","negative","alt"
"19",1,"NA","55","English","19","6","turtle","TRUE","1","848","negative","alt"
"20",1,"NA","55","English","20","3","purse","TRUE","1","918","negative","alt"
"21",1,"NA","55","English","21","3","popsicle","FALSE","1","1062","negative","item"
"22",1,"NA","55","English","22","4","cat","FALSE","1","837","negative","item"
"23",1,"NA","55","English","23","7","mitten","TRUE","1","1747","negative","alt"
"24",1,"NA","55","English","24","2","bike","FALSE","1","1147","positive","alt"
"25",1,"NA","55","English","25","4","banana","TRUE","1","1046","negative","alt"
"26",1,"NA","55","English","26","0","fish","FALSE","1","1003","negative","item"
"27",1,"NA","55","English","27","4","tree","FALSE","1","1104","positive","alt"
"28",1,"NA","55","English","28","3","flower","FALSE","1","1366","positive","alt"
"29",1,"NA","55","English","29","3","donut","TRUE","1","884","positive","item"
"30",1,"NA","55","English","30","7","balloon","FALSE","1","905","positive","alt"
"31",1,"NA","55","English","31","6","dog","TRUE","1","1076","positive","item"
"32",1,"NA","55","English","32","7","elephant","TRUE","1","660","positive","item"
"33",1,"NA","55","English","33","0","cookie","TRUE","1","1655","negative","alt"
"34",1,"NA","55","English","34","4","pencil","TRUE","1","1353","positive","item"
"35",1,"NA","55","English","35","7","bucket","FALSE","1","917","negative","item"
"36",1,"NA","55","English","36","8","key","FALSE","1","1375","positive","alt"
"37",2,"NA","35","english","1","4","lion","FALSE","1","1148","positive","alt"
"38",2,"NA","35","english","2","2","elephant","TRUE","1","1970","positive","item"
"39",2,"NA","35","english","3","7","key","FALSE","1","3199","negative","item"
"40",2,"NA","35","english","4","5","bucket","TRUE","1","1038","positive","item"
"41",2,"NA","35","english","5","7","cookie","TRUE","1","7032","negative","alt"
"42",2,"NA","35","english","6","0","duck","FALSE","1","901","positive","alt"
"43",2,"NA","35","english","7","8","balloon","TRUE","1","1445","positive","item"
"44",2,"NA","35","english","8","1","cake","TRUE","1","1828","negative","alt"
"45",2,"NA","35","english","9","1","horse","FALSE","1","796","positive","alt"
"46",2,"NA","35","english","10","6","strawberry","TRUE","1","1123","positive","item"
"47",2,"NA","35","english","11","6","bus","TRUE","1","1830","negative","alt"
"48",2,"NA","35","english","12","4","frog","TRUE","1","1344","negative","alt"
"49",2,"NA","35","english","13","3","shoe","TRUE","1","554","positive","item"
"50",2,"NA","35","english","14","3","carrot","FALSE","1","1092","positive","alt"
"51",2,"NA","35","english","15","8","crayon","FALSE","1","1475","positive","alt"
"52",2,"NA","35","english","16","7","fish","FALSE","1","832","positive","alt"
"53",2,"NA","35","english","17","4","cat","TRUE","1","562","positive","item"
"54",2,"NA","35","english","18","3","mitten","FALSE","0","661","negative","alt"
"55",2,"NA","35","english","19","1","car","TRUE","0","997","negative","item"
"56",2,"NA","35","english","20","8","cow","FALSE","1","307","negative","item"
"57",2,"NA","35","english","21","5","donut","FALSE","1","175","negative","item"
"58",2,"NA","35","english","22","6","pig","FALSE","1","296","negative","item"
"59",2,"NA","35","english","23","7","fork","FALSE","0","641","positive","item"
"60",2,"NA","35","english","24","5","flower","TRUE","1","2423","negative","alt"
"61",2,"NA","35","english","25","1","shirt","TRUE","1","473","positive","item"
"62",2,"NA","35","english","26","5","tree","FALSE","1","1428","positive","alt"
"63",2,"NA","35","english","27","0","guitar","TRUE","1","700","positive","item"
"64",2,"NA","35","english","28","2","pencil","FALSE","1","889","positive","alt"
"65",2,"NA","35","english","29","0","banana","FALSE","1","3141","negative","item"
"66",2,"NA","35","english","30","0","bike","FALSE","0","1068","negative","alt"
"67",2,"NA","35","english","31","4","purse","FALSE","1","1902","negative","item"
"68",2,"NA","35","english","32","3","popsicle","FALSE","1","1034","negative","item"
"69",2,"NA","35","english","33","6","apple","FALSE","1","1578","positive","alt"
"70",2,"NA","35","english","34","8","turtle","FALSE","0","849","negative","alt"
"71",2,"NA","35","english","35","2","phone","FALSE","1","892","negative","item"
"72",2,"NA","35","english","36","2","dog","FALSE","0","276","negative","alt"
"73",3,"NA","35","English","1","5","lion","FALSE","1","1033","negative","item"
"74",3,"NA","35","English","2","6","car","TRUE","1","963","negative","alt"
"75",3,"NA","35","English","3","6","popsicle","FALSE","1","925","positive","alt"
"76",3,"NA","35","English","4","4","duck","TRUE","1","695","positive","item"
"77",3,"NA","35","English","5","8","bucket","TRUE","1","845","negative","alt"
"78",3,"NA","35","English","6","3","cookie","TRUE","1","693","negative","alt"
"79",3,"NA","35","English","7","5","shoe","FALSE","1","803","positive","alt"
"80",3,"NA","35","English","8","3","phone","FALSE","1","715","negative","item"
"81",3,"NA","35","English","9","4","elephant","FALSE","1","1183","negative","item"
"82",3,"NA","35","English","10","1","horse","FALSE","1","932","positive","alt"
"83",3,"NA","35","English","11","8","tree","FALSE","1","882","negative","item"
"84",3,"NA","35","English","12","2","frog","TRUE","1","1062","negative","alt"
"85",3,"NA","35","English","13","2","fork","TRUE","1","749","positive","item"
"86",3,"NA","35","English","14","7","guitar","FALSE","1","724","negative","item"
"87",3,"NA","35","English","15","7","bike","TRUE","1","774","negative","alt"
"88",3,"NA","35","English","16","7","flower","FALSE","1","777","positive","alt"
"89",3,"NA","35","English","17","2","fish","TRUE","0","711","negative","item"
"90",3,"NA","35","English","18","3","cake","TRUE","1","546","positive","item"
"91",3,"NA","35","English","19","0","turtle","FALSE","1","639","negative","item"
"92",3,"NA","35","English","20","1","donut","FALSE","1","859","negative","item"
"93",3,"NA","35","English","21","8","purse","TRUE","1","516","positive","item"
"94",3,"NA","35","English","22","8","shirt","FALSE","1","1008","positive","alt"
"95",3,"NA","35","English","23","5","apple","TRUE","1","623","positive","item"
"96",3,"NA","35","English","24","4","dog","FALSE","1","858","positive","alt"
"97",3,"NA","35","English","25","6","mitten","TRUE","1","731","positive","item"
"98",3,"NA","35","English","26","7","bus","TRUE","1","605","positive","item"
"99",3,"NA","35","English","27","1","key","TRUE","1","915","positive","item"
"100",3,"NA","35","English","28","0","balloon","TRUE","1","1680","negative","alt"
"101",3,"NA","35","English","29","5","cat","TRUE","1","926","negative","alt"
"102",3,"NA","35","English","30","0","strawberry","FALSE","1","635","positive","alt"
"103",3,"NA","35","English","31","3","banana","FALSE","1","775","positive","alt"
"104",3,"NA","35","English","32","0","crayon","TRUE","1","562","positive","item"
"105",3,"NA","35","English","33","1","carrot","TRUE","1","749","negative","alt"
"106",3,"NA","35","English","34","6","pencil","FALSE","1","982","negative","item"
"107",3,"NA","35","English","35","2","cow","FALSE","1","980","positive","alt"
"108",3,"NA","35","English","36","4","pig","TRUE","1","711","negative","alt"
"109",4,"NA","25","Engish","1","0","cake","TRUE","1","1244","negative","alt"
"110",4,"NA","25","Engish","2","1","duck","TRUE","1","1179","negative","alt"
"111",4,"NA","25","Engish","3","3","popsicle","FALSE","1","1319","positive","alt"
"112",4,"NA","25","Engish","4","7","key","TRUE","1","1064","negative","alt"
"113",4,"NA","25","Engish","5","8","cow","FALSE","1","1887","positive","alt"
"114",4,"NA","25","Engish","6","4","shirt","FALSE","1","1167","positive","alt"
"115",4,"NA","25","Engish","7","4","pig","TRUE","1","856","positive","item"
"116",4,"NA","25","Engish","8","5","bus","FALSE","1","758","positive","alt"
"117",4,"NA","25","Engish","9","3","guitar","TRUE","1","745","positive","item"
"118",4,"NA","25","Engish","10","7","cookie","FALSE","1","755","positive","alt"
"119",4,"NA","25","Engish","11","1","fish","FALSE","1","896","positive","alt"
"120",4,"NA","25","Engish","12","5","mitten","FALSE","1","893","negative","item"
"121",4,"NA","25","Engish","13","0","cat","TRUE","1","680","positive","item"
"122",4,"NA","25","Engish","14","4","horse","FALSE","1","670","negative","item"
"123",4,"NA","25","Engish","15","6","strawberry","FALSE","0","536","negative","alt"
"124",4,"NA","25","Engish","16","2","bike","TRUE","1","1038","negative","alt"
"125",4,"NA","25","Engish","17","2","apple","TRUE","1","696","positive","item"
"126",4,"NA","25","Engish","18","8","banana","FALSE","1","1038","negative","item"
"127",4,"NA","25","Engish","19","4","car","TRUE","1","1106","negative","alt"
"128",4,"NA","25","Engish","20","0","crayon","FALSE","1","887","negative","item"
"129",4,"NA","25","Engish","21","2","pencil","FALSE","1","591","negative","item"
"130",4,"NA","25","Engish","22","0","elephant","FALSE","1","1127","positive","alt"
"131",4,"NA","25","Engish","23","5","donut","TRUE","1","784","positive","item"
"132",4,"NA","25","Engish","24","5","balloon","TRUE","1","840","negative","alt"
"133",4,"NA","25","Engish","25","7","purse","TRUE","1","815","positive","item"
"134",4,"NA","25","Engish","26","3","bucket","TRUE","1","822","negative","alt"
"135",4,"NA","25","Engish","27","6","tree","TRUE","1","615","positive","item"
"136",4,"NA","25","Engish","28","1","flower","TRUE","1","646","positive","item"
"137",4,"NA","25","Engish","29","7","dog","FALSE","1","703","negative","item"
"138",4,"NA","25","Engish","30","1","turtle","FALSE","1","759","negative","item"
"139",4,"NA","25","Engish","31","3","carrot","FALSE","1","666","negative","item"
"140",4,"NA","25","Engish","32","6","frog","FALSE","1","919","positive","alt"
"141",4,"NA","25","Engish","33","2","lion","FALSE","1","1030","positive","alt"
"142",4,"NA","25","Engish","34","8","phone","TRUE","1","686","positive","item"
"143",4,"NA","25","Engish","35","8","shoe","TRUE","1","663","negative","alt"
"144",4,"NA","25","Engish","36","6","fork","FALSE","1","1160","negative","item"
"145",5,"NA","45","English","1","2","frog","TRUE","0","942","negative","item"
"146",5,"NA","45","English","2","6","cow","FALSE","1","1471","negative","item"
"147",5,"NA","45","English","3","8","apple","TRUE","1","1737","positive","item"
"148",5,"NA","45","English","4","6","flower","TRUE","1","1519","negative","alt"
"149",5,"NA","45","English","5","8","banana","FALSE","1","1015","negative","item"
"150",5,"NA","45","English","6","5","tree","FALSE","1","1009","negative","item"
"151",5,"NA","45","English","7","0","key","TRUE","1","1480","negative","alt"
"152",5,"NA","45","English","8","1","fish","FALSE","1","1112","negative","item"
"153",5,"NA","45","English","9","7","bus","TRUE","1","1351","negative","alt"
"154",5,"NA","45","English","10","6","lion","TRUE","1","1202","positive","item"
"155",5,"NA","45","English","11","6","car","FALSE","1","1198","positive","alt"
"156",5,"NA","45","English","12","4","pig","TRUE","1","1504","negative","alt"
"157",5,"NA","45","English","13","7","elephant","FALSE","1","1783","positive","alt"
"158",5,"NA","45","English","14","2","dog","TRUE","1","1457","negative","alt"
"159",5,"NA","45","English","15","3","bike","TRUE","1","1568","positive","item"
"160",5,"NA","45","English","16","4","pencil","FALSE","1","1073","positive","alt"
"161",5,"NA","45","English","17","2","purse","FALSE","1","1038","positive","alt"
"162",5,"NA","45","English","18","5","cookie","TRUE","1","903","negative","alt"
"163",5,"NA","45","English","19","4","popsicle","FALSE","1","1671","negative","item"
"164",5,"NA","45","English","20","1","turtle","TRUE","1","1072","negative","alt"
"165",5,"NA","45","English","21","3","mitten","TRUE","1","1360","negative","alt"
"166",5,"NA","45","English","22","4","duck","TRUE","1","1001","positive","item"
"167",5,"NA","45","English","23","5","cat","FALSE","1","1013","positive","alt"
"168",5,"NA","45","English","24","3","cake","FALSE","1","913","negative","item"
"169",5,"NA","45","English","25","5","strawberry","TRUE","1","896","positive","item"
"170",5,"NA","45","English","26","7","shoe","TRUE","1","944","positive","item"
"171",5,"NA","45","English","27","2","phone","TRUE","1","1433","positive","item"
"172",5,"NA","45","English","28","3","bucket","FALSE","1","912","positive","alt"
"173",5,"NA","45","English","29","7","balloon","FALSE","1","2039","negative","item"
"174",5,"NA","45","English","30","1","shirt","FALSE","1","1497","positive","alt"
"175",5,"NA","45","English","31","1","crayon","TRUE","1","1030","positive","item"
"176",5,"NA","45","English","32","0","horse","FALSE","1","857","positive","alt"
"177",5,"NA","45","English","33","0","donut","TRUE","1","927","positive","item"
"178",5,"NA","45","English","34","8","carrot","TRUE","1","1470","negative","alt"
"179",5,"NA","45","English","35","0","fork","FALSE","1","1145","negative","item"
"180",5,"NA","45","English","36","8","guitar","FALSE","1","959","positive","alt"
"181",6,"NA","65","English","1","3","pig","TRUE","1","1227","positive","item"
"182",6,"NA","65","English","2","8","tree","TRUE","1","1162","positive","item"
"183",6,"NA","65","English","3","1","duck","FALSE","1","1274","positive","alt"
"184",6,"NA","65","English","4","7","frog","TRUE","1","930","positive","item"
"185",6,"NA","65","English","5","1","dog","FALSE","1","3511","negative","item"
"186",6,"NA","65","English","6","8","crayon","TRUE","1","2195","negative","alt"
"187",6,"NA","65","English","7","7","cake","TRUE","1","1905","negative","alt"
"188",6,"NA","65","English","8","6","fork","TRUE","1","1281","positive","item"
"189",6,"NA","65","English","9","0","bike","TRUE","1","1289","positive","item"
"190",6,"NA","65","English","10","1","cookie","TRUE","1","1146","positive","item"
"191",6,"NA","65","English","11","7","pencil","FALSE","1","1769","negative","item"
"192",6,"NA","65","English","12","2","elephant","FALSE","1","1970","positive","alt"
"193",6,"NA","65","English","13","6","flower","FALSE","1","1802","negative","item"
"194",6,"NA","65","English","14","4","fish","TRUE","1","1794","negative","alt"
"195",6,"NA","65","English","15","7","cow","FALSE","1","1785","positive","alt"
"196",6,"NA","65","English","16","3","bus","FALSE","1","1659","negative","item"
"197",6,"NA","65","English","17","1","bucket","TRUE","1","1614","negative","alt"
"198",6,"NA","65","English","18","2","shoe","TRUE","1","1705","negative","alt"
"199",6,"NA","65","English","19","6","shirt","FALSE","1","1616","positive","alt"
"200",6,"NA","65","English","20","0","balloon","FALSE","1","1463","negative","item"
"201",6,"NA","65","English","21","8","apple","FALSE","1","3413","positive","alt"
"202",6,"NA","65","English","22","0","key","TRUE","1","1905","negative","alt"
"203",6,"NA","65","English","23","2","lion","FALSE","1","1590","negative","item"
"204",6,"NA","65","English","24","3","purse","TRUE","1","2211","negative","alt"
"205",6,"NA","65","English","25","8","donut","FALSE","1","1437","negative","item"
"206",6,"NA","65","English","26","0","horse","FALSE","1","1932","positive","alt"
"207",6,"NA","65","English","27","6","banana","TRUE","1","1887","negative","alt"
"208",6,"NA","65","English","28","3","cat","FALSE","1","1704","positive","alt"
"209",6,"NA","65","English","29","5","phone","FALSE","1","1609","positive","alt"
"210",6,"NA","65","English","30","4","turtle","FALSE","1","1579","positive","alt"
"211",6,"NA","65","English","31","4","guitar","TRUE","1","1410","positive","item"
"212",6,"NA","65","English","32","2","mitten","TRUE","1","1499","positive","item"
"213",6,"NA","65","English","33","5","popsicle","TRUE","1","1609","positive","item"
"214",6,"NA","65","English","34","4","carrot","FALSE","1","1392","negative","item"
"215",6,"NA","65","English","35","5","car","FALSE","1","1605","negative","item"
"216",6,"NA","65","English","36","5","strawberry","TRUE","1","1465","negative","alt"
"217",7,"NA","55","English","1","2","bus","FALSE","1","3361","negative","item"
"218",7,"NA","55","English","2","8","strawberry","TRUE","0","1765","positive","alt"
"219",7,"NA","55","English","3","0","key","FALSE","1","3214","positive","alt"
"220",7,"NA","55","English","4","5","lion","TRUE","1","2033","positive","item"
"221",7,"NA","55","English","5","1","shoe","TRUE","1","2283","negative","alt"
"222",7,"NA","55","English","6","4","pencil","FALSE","1","1939","negative","item"
"223",7,"NA","55","English","7","8","bike","TRUE","1","2690","negative","alt"
"224",7,"NA","55","English","8","8","banana","TRUE","1","1419","positive","item"
"225",7,"NA","55","English","9","3","cake","TRUE","1","1845","negative","alt"
"226",7,"NA","55","English","10","8","shirt","FALSE","1","1812","negative","item"
"227",7,"NA","55","English","11","4","fish","FALSE","1","2079","positive","alt"
"228",7,"NA","55","English","12","1","flower","FALSE","1","1876","negative","item"
"229",7,"NA","55","English","13","6","cow","TRUE","1","2627","negative","alt"
"230",7,"NA","55","English","14","6","cookie","TRUE","1","2254","positive","item"
"231",7,"NA","55","English","15","1","phone","TRUE","1","1654","positive","item"
"232",7,"NA","55","English","16","6","pig","FALSE","1","2628","positive","alt"
"233",7,"NA","55","English","17","5","elephant","FALSE","1","2501","positive","alt"
"234",7,"NA","55","English","18","2","crayon","TRUE","1","1263","positive","item"
"235",7,"NA","55","English","19","6","dog","FALSE","1","1569","negative","item"
"236",7,"NA","55","English","20","0","tree","FALSE","1","2452","negative","item"
"237",7,"NA","55","English","21","5","balloon","TRUE","1","1845","negative","alt"
"238",7,"NA","55","English","22","0","popsicle","TRUE","1","2141","negative","alt"
"239",7,"NA","55","English","23","3","duck","FALSE","1","1508","negative","item"
"240",7,"NA","55","English","24","0","fork","TRUE","1","1517","positive","item"
"241",7,"NA","55","English","25","1","purse","FALSE","1","1515","positive","alt"
"242",7,"NA","55","English","26","2","donut","TRUE","1","1955","negative","alt"
"243",7,"NA","55","English","27","7","guitar","FALSE","1","1625","negative","item"
"244",7,"NA","55","English","28","3","frog","TRUE","1","1828","positive","item"
"245",7,"NA","55","English","29","3","bucket","FALSE","1","4644","positive","alt"
"246",7,"NA","55","English","30","2","cat","FALSE","1","2423","positive","alt"
"247",7,"NA","55","English","31","5","horse","FALSE","1","2128","negative","item"
"248",7,"NA","55","English","32","7","mitten","FALSE","1","1503","positive","alt"
"249",7,"NA","55","English","33","7","carrot","TRUE","1","1469","negative","alt"
"250",7,"NA","55","English","34","4","turtle","TRUE","1","1359","positive","item"
"251",7,"NA","55","English","35","7","car","FALSE","0","1626","positive","item"
"252",7,"NA","55","English","36","4","apple","TRUE","1","1956","negative","alt"
"253",8,"NA","35","English","1","5","horse","TRUE","1","734","positive","item"
"254",8,"NA","35","English","2","2","purse","FALSE","1","864","positive","alt"
"255",8,"NA","35","English","3","3","fish","TRUE","0","1483","negative","item"
"256",8,"NA","35","English","4","6","duck","FALSE","1","916","positive","alt"
"257",8,"NA","35","English","5","4","bucket","FALSE","1","2458","negative","item"
"258",8,"NA","35","English","6","3","car","FALSE","1","1155","positive","alt"
"259",8,"NA","35","English","7","2","turtle","FALSE","1","1554","negative","item"
"260",8,"NA","35","English","8","7","mitten","TRUE","1","2248","negative","alt"
"261",8,"NA","35","English","9","8","banana","FALSE","1","1049","positive","alt"
"262",8,"NA","35","English","10","7","carrot","FALSE","1","1147","negative","item"
"263",8,"NA","35","English","11","3","pencil","TRUE","1","1095","positive","item"
"264",8,"NA","35","English","12","5","cookie","FALSE","1","794","negative","item"
"265",8,"NA","35","English","13","2","phone","TRUE","1","1284","positive","item"
"266",8,"NA","35","English","14","1","tree","TRUE","1","724","positive","item"
"267",8,"NA","35","English","15","6","frog","TRUE","1","1202","negative","alt"
"268",8,"NA","35","English","16","4","crayon","TRUE","1","1162","positive","item"
"269",8,"NA","35","English","17","8","balloon","TRUE","1","1238","negative","alt"
"270",8,"NA","35","English","18","6","pig","FALSE","1","939","negative","item"
"271",8,"NA","35","English","19","0","apple","TRUE","1","1362","negative","alt"
"272",8,"NA","35","English","20","0","fork","FALSE","1","2041","negative","item"
"273",8,"NA","35","English","21","1","elephant","FALSE","1","1876","positive","alt"
"274",8,"NA","35","English","22","7","shoe","TRUE","1","1052","positive","item"
"275",8,"NA","35","English","23","1","cat","FALSE","1","1082","negative","item"
"276",8,"NA","35","English","24","3","cow","TRUE","1","1334","negative","alt"
"277",8,"NA","35","English","25","5","bus","TRUE","1","3448","negative","alt"
"278",8,"NA","35","English","26","1","shirt","TRUE","1","1314","negative","alt"
"279",8,"NA","35","English","27","6","popsicle","TRUE","1","1094","positive","item"
"280",8,"NA","35","English","28","4","cake","FALSE","1","919","positive","alt"
"281",8,"NA","35","English","29","4","key","TRUE","1","1593","negative","alt"
"282",8,"NA","35","English","30","5","guitar","FALSE","1","1700","positive","alt"
"283",8,"NA","35","English","31","0","dog","TRUE","1","1685","positive","item"
"284",8,"NA","35","English","32","7","strawberry","FALSE","1","1866","positive","alt"
"285",8,"NA","35","English","33","8","flower","FALSE","1","949","negative","item"
"286",8,"NA","35","English","34","8","bike","TRUE","1","960","positive","item"
"287",8,"NA","35","English","35","2","donut","TRUE","1","1831","negative","alt"
"288",8,"NA","35","English","36","0","lion","FALSE","1","846","positive","alt"
"289",9,"NA","25","english","1","0","car","FALSE","1","637","positive","alt"
"290",9,"NA","25","english","2","6","frog","FALSE","1","1484","negative","item"
"291",9,"NA","25","english","3","5","elephant","FALSE","1","736","positive","alt"
"292",9,"NA","25","english","4","7","guitar","TRUE","1","982","negative","alt"
"293",9,"NA","25","english","5","3","tree","FALSE","1","872","positive","alt"
"294",9,"NA","25","english","6","2","shirt","FALSE","1","664","positive","alt"
"295",9,"NA","25","english","7","1","flower","TRUE","1","740","negative","alt"
"296",9,"NA","25","english","8","3","cow","TRUE","1","789","negative","alt"
"297",9,"NA","25","english","9","7","dog","TRUE","1","658","positive","item"
"298",9,"NA","25","english","10","3","key","FALSE","1","859","negative","item"
"299",9,"NA","25","english","11","8","turtle","FALSE","1","861","positive","alt"
"300",9,"NA","25","english","12","2","crayon","FALSE","0","1452","negative","alt"
"301",9,"NA","25","english","13","0","duck","TRUE","1","870","positive","item"
"302",9,"NA","25","english","14","8","horse","TRUE","1","529","positive","item"
"303",9,"NA","25","english","15","1","cat","FALSE","1","741","positive","alt"
"304",9,"NA","25","english","16","6","phone","TRUE","1","658","positive","item"
"305",9,"NA","25","english","17","7","carrot","FALSE","1","595","positive","alt"
"306",9,"NA","25","english","18","6","apple","FALSE","1","619","positive","alt"
"307",9,"NA","25","english","19","5","strawberry","FALSE","1","1573","negative","item"
"308",9,"NA","25","english","20","3","banana","TRUE","1","587","positive","item"
"309",9,"NA","25","english","21","0","purse","FALSE","1","690","negative","item"
"310",9,"NA","25","english","22","8","pig","FALSE","1","868","negative","item"
"311",9,"NA","25","english","23","5","cake","TRUE","1","557","positive","item"
"312",9,"NA","25","english","24","1","lion","TRUE","1","550","positive","item"
"313",9,"NA","25","english","25","4","bike","FALSE","1","683","negative","item"
"314",9,"NA","25","english","26","0","popsicle","FALSE","0","1004","negative","alt"
"315",9,"NA","25","english","27","5","fish","TRUE","1","934","negative","alt"
"316",9,"NA","25","english","28","7","balloon","FALSE","1","964","negative","item"
"317",9,"NA","25","english","29","1","fork","FALSE","1","852","negative","item"
"318",9,"NA","25","english","30","2","bus","FALSE","1","1207","negative","item"
"319",9,"NA","25","english","31","6","mitten","FALSE","0","1859","negative","alt"
"320",9,"NA","25","english","32","2","shoe","TRUE","1","870","positive","item"
"321",9,"NA","25","english","33","4","donut","TRUE","1","830","positive","item"
"322",9,"NA","25","english","34","8","bucket","FALSE","0","1344","negative","alt"
"323",9,"NA","25","english","35","4","cookie","FALSE","1","760","positive","alt"
"324",9,"NA","25","english","36","4","pencil","TRUE","1","1005","negative","alt"
"325",10,"NA","35","English","1","7","flower","TRUE","1","826","positive","item"
"326",10,"NA","35","English","2","4","elephant","TRUE","1","852","positive","item"
"327",10,"NA","35","English","3","1","popsicle","FALSE","1","997","positive","alt"
"328",10,"NA","35","English","4","3","purse","TRUE","1","574","positive","item"
"329",10,"NA","35","English","5","4","shirt","FALSE","0","645","negative","alt"
"330",10,"NA","35","English","6","3","horse","FALSE","1","811","positive","alt"
"331",10,"NA","35","English","7","5","duck","FALSE","1","1571","negative","item"
"332",10,"NA","35","English","8","6","strawberry","TRUE","1","1187","negative","alt"
"333",10,"NA","35","English","9","4","donut","FALSE","1","825","negative","item"
"334",10,"NA","35","English","10","0","shoe","FALSE","1","842","positive","alt"
"335",10,"NA","35","English","11","4","tree","FALSE","1","748","positive","alt"
"336",10,"NA","35","English","12","8","key","TRUE","1","965","negative","alt"
"337",10,"NA","35","English","13","0","balloon","TRUE","1","782","negative","alt"
"338",10,"NA","35","English","14","5","mitten","TRUE","1","832","negative","alt"
"339",10,"NA","35","English","15","5","cookie","TRUE","1","917","positive","item"
"340",10,"NA","35","English","16","1","cat","TRUE","1","544","positive","item"
"341",10,"NA","35","English","17","1","pig","FALSE","1","1024","negative","item"
"342",10,"NA","35","English","18","6","turtle","FALSE","1","856","positive","alt"
"343",10,"NA","35","English","19","5","cake","FALSE","1","821","positive","alt"
"344",10,"NA","35","English","20","7","bucket","FALSE","1","1318","positive","alt"
"345",10,"NA","35","English","21","6","pencil","TRUE","1","593","positive","item"
"346",10,"NA","35","English","22","2","lion","FALSE","1","825","negative","item"
"347",10,"NA","35","English","23","7","fork","FALSE","1","913","negative","item"
"348",10,"NA","35","English","24","3","bus","FALSE","1","731","negative","item"
"349",10,"NA","35","English","25","8","bike","TRUE","1","507","positive","item"
"350",10,"NA","35","English","26","0","dog","TRUE","1","529","positive","item"
"351",10,"NA","35","English","27","2","phone","TRUE","1","2537","negative","alt"
"352",10,"NA","35","English","28","2","crayon","FALSE","1","884","positive","alt"
"353",10,"NA","35","English","29","0","apple","FALSE","1","815","negative","item"
"354",10,"NA","35","English","30","1","car","TRUE","1","1138","negative","alt"
"355",10,"NA","35","English","31","2","cow","TRUE","1","653","positive","item"
"356",10,"NA","35","English","32","6","fish","FALSE","1","932","negative","item"
"357",10,"NA","35","English","33","7","banana","TRUE","1","925","negative","alt"
"358",10,"NA","35","English","34","8","frog","FALSE","1","666","negative","item"
"359",10,"NA","35","English","35","8","guitar","FALSE","1","661","positive","alt"
"360",10,"NA","35","English","36","3","carrot","TRUE","1","2098","negative","alt"
"361",11,"NA","35","English","1","4","banana","FALSE","1","1877","negative","item"
"362",11,"NA","35","English","2","5","tree","FALSE","1","970","positive","alt"
"363",11,"NA","35","English","3","8","duck","TRUE","1","1668","negative","alt"
"364",11,"NA","35","English","4","7","elephant","TRUE","1","906","positive","item"
"365",11,"NA","35","English","5","5","fish","FALSE","1","1189","negative","item"
"366",11,"NA","35","English","6","2","mitten","FALSE","1","1344","positive","alt"
"367",11,"NA","35","English","7","7","lion","FALSE","1","1000","negative","item"
"368",11,"NA","35","English","8","5","balloon","TRUE","1","905","positive","item"
"369",11,"NA","35","English","9","4","crayon","TRUE","1","877","positive","item"
"370",11,"NA","35","English","10","6","popsicle","TRUE","1","737","positive","item"
"371",11,"NA","35","English","11","3","turtle","TRUE","1","641","positive","item"
"372",11,"NA","35","English","12","1","cat","FALSE","1","779","positive","alt"
"373",11,"NA","35","English","13","6","strawberry","FALSE","1","906","positive","alt"
"374",11,"NA","35","English","14","0","shoe","FALSE","1","953","negative","item"
"375",11,"NA","35","English","15","6","pencil","FALSE","1","707","negative","item"
"376",11,"NA","35","English","16","2","flower","TRUE","1","1302","negative","alt"
"377",11,"NA","35","English","17","3","purse","FALSE","1","984","negative","item"
"378",11,"NA","35","English","18","2","cow","TRUE","1","551","positive","item"
"379",11,"NA","35","English","19","1","guitar","TRUE","1","689","positive","item"
"380",11,"NA","35","English","20","3","car","TRUE","1","968","negative","alt"
"381",11,"NA","35","English","21","7","cookie","TRUE","1","922","negative","alt"
"382",11,"NA","35","English","22","3","bucket","FALSE","1","803","positive","alt"
"383",11,"NA","35","English","23","8","dog","FALSE","1","1362","negative","item"
"384",11,"NA","35","English","24","0","bike","TRUE","1","548","positive","item"
"385",11,"NA","35","English","25","6","apple","TRUE","1","907","negative","alt"
"386",11,"NA","35","English","26","8","frog","FALSE","1","675","positive","alt"
"387",11,"NA","35","English","27","0","phone","TRUE","1","1110","negative","alt"
"388",11,"NA","35","English","28","7","shirt","FALSE","1","726","positive","alt"
"389",11,"NA","35","English","29","1","donut","FALSE","1","688","negative","item"
"390",11,"NA","35","English","30","2","fork","FALSE","1","672","negative","item"
"391",11,"NA","35","English","31","4","key","FALSE","1","799","positive","alt"
"392",11,"NA","35","English","32","4","cake","TRUE","1","1054","negative","alt"
"393",11,"NA","35","English","33","8","bus","TRUE","1","765","positive","item"
"394",11,"NA","35","English","34","5","horse","TRUE","1","1594","negative","alt"
"395",11,"NA","35","English","35","0","pig","FALSE","1","630","positive","alt"
"396",11,"NA","35","English","36","1","carrot","TRUE","1","824","negative","alt"
"397",12,"NA","35","english","1","1","banana","FALSE","1","2073","negative","item"
"398",12,"NA","35","english","2","7","duck","TRUE","1","3800","negative","alt"
"399",12,"NA","35","english","3","3","elephant","TRUE","1","1810","negative","alt"
"400",12,"NA","35","english","4","1","cow","TRUE","1","2343","positive","item"
"401",12,"NA","35","english","5","8","strawberry","FALSE","1","1309","positive","alt"
"402",12,"NA","35","english","6","4","bike","TRUE","1","1681","negative","alt"
"403",12,"NA","35","english","7","2","shirt","FALSE","1","1629","negative","item"
"404",12,"NA","35","english","8","8","crayon","TRUE","1","1196","positive","item"
"405",12,"NA","35","english","9","7","turtle","TRUE","1","1473","positive","item"
"406",12,"NA","35","english","10","6","horse","TRUE","1","1332","negative","alt"
"407",12,"NA","35","english","11","0","cake","FALSE","1","1013","positive","alt"
"408",12,"NA","35","english","12","2","dog","FALSE","1","1842","positive","alt"
"409",12,"NA","35","english","13","1","flower","TRUE","1","1189","negative","alt"
"410",12,"NA","35","english","14","6","pig","FALSE","1","1386","positive","alt"
"411",12,"NA","35","english","15","7","apple","FALSE","1","3896","positive","alt"
"412",12,"NA","35","english","16","1","tree","FALSE","1","1596","positive","alt"
"413",12,"NA","35","english","17","0","fish","TRUE","1","1891","negative","alt"
"414",12,"NA","35","english","18","0","fork","FALSE","1","2843","negative","item"
"415",12,"NA","35","english","19","7","pencil","FALSE","1","1457","negative","item"
"416",12,"NA","35","english","20","5","phone","TRUE","1","1288","negative","alt"
"417",12,"NA","35","english","21","3","frog","FALSE","1","1200","positive","alt"
"418",12,"NA","35","english","22","6","mitten","FALSE","0","1424","positive","item"
"419",12,"NA","35","english","23","0","car","TRUE","1","944","positive","item"
"420",12,"NA","35","english","24","3","guitar","FALSE","1","2481","negative","item"
"421",12,"NA","35","english","25","2","key","TRUE","1","994","positive","item"
"422",12,"NA","35","english","26","5","popsicle","FALSE","1","1197","negative","item"
"423",12,"NA","35","english","27","5","purse","TRUE","1","1205","positive","item"
"424",12,"NA","35","english","28","3","lion","TRUE","1","1241","positive","item"
"425",12,"NA","35","english","29","8","shoe","FALSE","1","1002","negative","item"
"426",12,"NA","35","english","30","4","bucket","TRUE","1","1050","positive","item"
"427",12,"NA","35","english","31","8","bus","TRUE","1","3073","negative","alt"
"428",12,"NA","35","english","32","4","balloon","FALSE","1","2125","positive","alt"
"429",12,"NA","35","english","33","5","cookie","FALSE","1","1642","positive","alt"
"430",12,"NA","35","english","34","6","cat","FALSE","1","1375","negative","item"
"431",12,"NA","35","english","35","4","carrot","FALSE","1","1626","negative","item"
"432",12,"NA","35","english","36","2","donut","TRUE","1","1485","negative","alt"
"433",13,"NA","65","English","1","4","dog","FALSE","1","1762","positive","alt"
"434",13,"NA","65","English","2","8","cat","FALSE","1","1735","negative","item"
"435",13,"NA","65","English","3","7","elephant","FALSE","1","1841","positive","alt"
"436",13,"NA","65","English","4","7","horse","TRUE","1","1721","positive","item"
"437",13,"NA","65","English","5","5","cookie","FALSE","1","1695","negative","item"
"438",13,"NA","65","English","6","3","frog","TRUE","1","1595","positive","item"
"439",13,"NA","65","English","7","1","fish","FALSE","1","1794","positive","alt"
"440",13,"NA","65","English","8","0","flower","TRUE","1","2222","negative","alt"
"441",13,"NA","65","English","9","1","apple","TRUE","1","1855","positive","item"
"442",13,"NA","65","English","10","3","balloon","FALSE","1","1869","negative","item"
"443",13,"NA","65","English","11","3","bus","FALSE","1","1774","positive","alt"
"444",13,"NA","65","English","12","5","shirt","FALSE","1","1819","positive","alt"
"445",13,"NA","65","English","13","2","pencil","TRUE","1","2417","negative","alt"
"446",13,"NA","65","English","14","0","duck","TRUE","1","1756","positive","item"
"447",13,"NA","65","English","15","0","strawberry","FALSE","1","1648","positive","alt"
"448",13,"NA","65","English","16","3","pig","TRUE","1","1707","negative","alt"
"449",13,"NA","65","English","17","8","bike","TRUE","1","1873","negative","alt"
"450",13,"NA","65","English","18","7","car","TRUE","1","1741","negative","alt"
"451",13,"NA","65","English","19","8","crayon","FALSE","1","1407","positive","alt"
"452",13,"NA","65","English","20","6","mitten","FALSE","1","3578","negative","item"
"453",13,"NA","65","English","21","6","shoe","TRUE","1","1440","negative","alt"
"454",13,"NA","65","English","22","7","cake","FALSE","1","1820","negative","item"
"455",13,"NA","65","English","23","8","donut","TRUE","1","1278","positive","item"
"456",13,"NA","65","English","24","4","purse","TRUE","1","1404","positive","item"
"457",13,"NA","65","English","25","5","fork","TRUE","1","1855","negative","alt"
"458",13,"NA","65","English","26","2","lion","TRUE","0","1679","negative","item"
"459",13,"NA","65","English","27","6","tree","FALSE","1","1824","positive","alt"
"460",13,"NA","65","English","28","2","turtle","TRUE","1","1964","positive","item"
"461",13,"NA","65","English","29","6","phone","TRUE","1","1678","positive","item"
"462",13,"NA","65","English","30","5","key","TRUE","1","1052","positive","item"
"463",13,"NA","65","English","31","1","cow","FALSE","1","1359","negative","item"
"464",13,"NA","65","English","32","2","banana","FALSE","1","2077","positive","alt"
"465",13,"NA","65","English","33","4","bucket","TRUE","1","2733","negative","alt"
"466",13,"NA","65","English","34","0","carrot","FALSE","1","3309","negative","item"
"467",13,"NA","65","English","35","4","popsicle","FALSE","1","1644","negative","item"
"468",13,"NA","65","English","36","1","guitar","TRUE","1","1726","negative","alt"
"469",14,"NA","35","English","1","1","cat","TRUE","1","746","positive","item"
"470",14,"NA","35","English","2","5","mitten","FALSE","1","555","positive","alt"
"471",14,"NA","35","English","3","0","apple","FALSE","1","631","positive","alt"
"472",14,"NA","35","English","4","5","bus","TRUE","1","1105","negative","alt"
"473",14,"NA","35","English","5","2","flower","FALSE","1","853","negative","item"
"474",14,"NA","35","English","6","6","fish","FALSE","0","713","negative","alt"
"475",14,"NA","35","English","7","1","phone","TRUE","1","1337","negative","alt"
"476",14,"NA","35","English","8","7","tree","TRUE","1","2413","positive","item"
"477",14,"NA","35","English","9","3","car","TRUE","1","2726","positive","item"
"478",14,"NA","35","English","10","2","elephant","TRUE","1","815","positive","item"
"479",14,"NA","35","English","11","2","fork","TRUE","1","986","negative","alt"
"480",14,"NA","35","English","12","7","donut","FALSE","1","1194","positive","alt"
"481",14,"NA","35","English","13","3","cake","FALSE","1","952","negative","item"
"482",14,"NA","35","English","14","0","cookie","FALSE","1","1094","negative","item"
"483",14,"NA","35","English","15","8","turtle","FALSE","1","1603","positive","alt"
"484",14,"NA","35","English","16","8","banana","TRUE","1","1044","positive","item"
"485",14,"NA","35","English","17","4","frog","FALSE","1","1543","negative","item"
"486",14,"NA","35","English","18","5","popsicle","FALSE","1","1495","negative","item"
"487",14,"NA","35","English","19","4","bucket","TRUE","1","824","positive","item"
"488",14,"NA","35","English","20","1","duck","FALSE","1","874","positive","alt"
"489",14,"NA","35","English","21","0","crayon","TRUE","1","730","positive","item"
"490",14,"NA","35","English","22","7","cow","FALSE","1","874","negative","item"
"491",14,"NA","35","English","23","6","shoe","TRUE","1","1064","positive","item"
"492",14,"NA","35","English","24","8","shirt","TRUE","1","965","negative","alt"
"493",14,"NA","35","English","25","6","carrot","FALSE","1","815","negative","item"
"494",14,"NA","35","English","26","0","key","FALSE","0","696","negative","alt"
"495",14,"NA","35","English","27","1","bike","FALSE","1","1195","negative","item"
"496",14,"NA","35","English","28","2","purse","FALSE","1","1655","positive","alt"
"497",14,"NA","35","English","29","3","pencil","TRUE","1","1344","negative","alt"
"498",14,"NA","35","English","30","6","strawberry","FALSE","1","924","positive","alt"
"499",14,"NA","35","English","31","7","balloon","TRUE","1","1255","negative","alt"
"500",14,"NA","35","English","32","5","dog","TRUE","1","876","positive","item"
"501",14,"NA","35","English","33","4","pig","FALSE","1","1295","positive","alt"
"502",14,"NA","35","English","34","3","guitar","FALSE","1","1224","positive","alt"
"503",14,"NA","35","English","35","8","horse","FALSE","1","1835","negative","item"
"504",14,"NA","35","English","36","4","lion","TRUE","1","1395","negative","alt"
"505",15,"NA","45","English","1","4","frog","FALSE","1","1485","positive","alt"
"506",15,"NA","45","English","2","5","key","FALSE","1","1707","negative","item"
"507",15,"NA","45","English","3","2","apple","TRUE","1","1703","negative","alt"
"508",15,"NA","45","English","4","2","mitten","FALSE","1","1831","negative","item"
"509",15,"NA","45","English","5","8","turtle","TRUE","1","778","positive","item"
"510",15,"NA","45","English","6","3","guitar","TRUE","1","1895","negative","alt"
"511",15,"NA","45","English","7","6","duck","TRUE","1","1576","negative","alt"
"512",15,"NA","45","English","8","1","bucket","FALSE","1","1824","positive","alt"
"513",15,"NA","45","English","9","8","bike","FALSE","1","1500","negative","item"
"514",15,"NA","45","English","10","5","balloon","TRUE","1","1391","positive","item"
"515",15,"NA","45","English","11","6","phone","TRUE","1","1380","positive","item"
"516",15,"NA","45","English","12","7","car","FALSE","1","1631","positive","alt"
"517",15,"NA","45","English","13","3","elephant","FALSE","1","1498","negative","item"
"518",15,"NA","45","English","14","6","shirt","FALSE","1","1468","negative","item"
"519",15,"NA","45","English","15","8","tree","FALSE","1","1492","positive","alt"
"520",15,"NA","45","English","16","5","bus","TRUE","1","2812","negative","alt"
"521",15,"NA","45","English","17","7","cookie","FALSE","1","1586","negative","item"
"522",15,"NA","45","English","18","4","fish","TRUE","1","1344","positive","item"
"523",15,"NA","45","English","19","0","cake","TRUE","1","1912","negative","alt"
"524",15,"NA","45","English","20","1","carrot","TRUE","1","1618","negative","alt"
"525",15,"NA","45","English","21","1","pig","FALSE","1","1985","negative","item"
"526",15,"NA","45","English","22","8","lion","TRUE","1","1785","negative","alt"
"527",15,"NA","45","English","23","2","pencil","FALSE","1","1544","positive","alt"
"528",15,"NA","45","English","24","4","donut","TRUE","1","1534","negative","alt"
"529",15,"NA","45","English","25","7","purse","TRUE","1","1485","negative","alt"
"530",15,"NA","45","English","26","0","strawberry","TRUE","1","1778","positive","item"
"531",15,"NA","45","English","27","4","cow","FALSE","1","1374","negative","item"
"532",15,"NA","45","English","28","3","cat","FALSE","1","1420","positive","alt"
"533",15,"NA","45","English","29","7","dog","TRUE","1","1231","positive","item"
"534",15,"NA","45","English","30","2","shoe","TRUE","1","1262","positive","item"
"535",15,"NA","45","English","31","0","popsicle","FALSE","1","1731","negative","item"
"536",15,"NA","45","English","32","3","flower","TRUE","1","1341","positive","item"
"537",15,"NA","45","English","33","0","horse","FALSE","1","1223","positive","alt"
"538",15,"NA","45","English","34","5","crayon","FALSE","1","1235","positive","alt"
"539",15,"NA","45","English","35","1","fork","TRUE","1","1439","positive","item"
"540",15,"NA","45","English","36","6","banana","FALSE","1","1306","positive","alt"
"541",16,"NA","35","English","1","8","duck","FALSE","1","1480","negative","item"
"542",16,"NA","35","English","2","6","bike","TRUE","1","2236","negative","alt"
"543",16,"NA","35","English","3","6","tree","FALSE","1","1645","positive","alt"
"544",16,"NA","35","English","4","2","shoe","FALSE","1","1737","positive","alt"
"545",16,"NA","35","English","5","0","cake","TRUE","1","1300","positive","item"
"546",16,"NA","35","English","6","0","bucket","FALSE","1","1028","positive","alt"
"547",16,"NA","35","English","7","2","turtle","TRUE","1","1626","negative","alt"
"548",16,"NA","35","English","8","5","apple","TRUE","1","1475","negative","alt"
"549",16,"NA","35","English","9","8","shirt","FALSE","1","1159","positive","alt"
"550",16,"NA","35","English","10","3","key","TRUE","1","1315","negative","alt"
"551",16,"NA","35","English","11","5","car","TRUE","1","1074","positive","item"
"552",16,"NA","35","English","12","1","lion","TRUE","1","893","positive","item"
"553",16,"NA","35","English","13","2","phone","TRUE","1","1497","positive","item"
"554",16,"NA","35","English","14","8","flower","TRUE","1","897","negative","alt"
"555",16,"NA","35","English","15","6","bus","FALSE","1","1513","negative","item"
"556",16,"NA","35","English","16","6","popsicle","TRUE","1","963","positive","item"
"557",16,"NA","35","English","17","5","fork","FALSE","1","1078","positive","alt"
"558",16,"NA","35","English","18","4","strawberry","FALSE","1","1507","positive","alt"
"559",16,"NA","35","English","19","7","pig","TRUE","1","1610","negative","alt"
"560",16,"NA","35","English","20","7","banana","TRUE","1","737","positive","item"
"561",16,"NA","35","English","21","3","cat","TRUE","1","1286","positive","item"
"562",16,"NA","35","English","22","0","guitar","FALSE","1","1157","negative","item"
"563",16,"NA","35","English","23","8","pencil","TRUE","1","930","positive","item"
"564",16,"NA","35","English","24","3","fish","FALSE","1","1362","positive","alt"
"565",16,"NA","35","English","25","7","dog","FALSE","1","961","negative","item"
"566",16,"NA","35","English","26","7","mitten","FALSE","1","1068","positive","alt"
"567",16,"NA","35","English","27","4","balloon","FALSE","1","988","negative","item"
"568",16,"NA","35","English","28","0","purse","TRUE","1","1910","negative","alt"
"569",16,"NA","35","English","29","1","horse","FALSE","1","1151","positive","alt"
"570",16,"NA","35","English","30","5","crayon","FALSE","1","757","negative","item"
"571",16,"NA","35","English","31","1","elephant","TRUE","1","1640","negative","alt"
"572",16,"NA","35","English","32","2","cookie","FALSE","1","959","negative","item"
"573",16,"NA","35","English","33","4","cow","TRUE","1","935","positive","item"
"574",16,"NA","35","English","34","4","donut","TRUE","1","1298","negative","alt"
"575",16,"NA","35","English","35","3","frog","FALSE","1","1373","negative","item"
"576",16,"NA","35","English","36","1","carrot","FALSE","1","1395","negative","item"
"577",17,"NA","55","English","1","4","purse","TRUE","1","6497","positive","item"
"578",17,"NA","55","English","2","3","fork","FALSE","0","3110","negative","alt"
"579",17,"NA","55","English","3","8","cow","FALSE","1","973","positive","alt"
"580",17,"NA","55","English","4","1","cat","TRUE","1","1761","negative","alt"
"581",17,"NA","55","English","5","2","turtle","TRUE","1","1594","negative","alt"
"582",17,"NA","55","English","6","4","bike","TRUE","1","1367","negative","alt"
"583",17,"NA","55","English","7","8","balloon","FALSE","1","1795","negative","item"
"584",17,"NA","55","English","8","2","elephant","FALSE","1","1936","negative","item"
"585",17,"NA","55","English","9","8","bus","TRUE","1","1066","positive","item"
"586",17,"NA","55","English","10","7","carrot","TRUE","1","992","positive","item"
"587",17,"NA","55","English","11","5","fish","TRUE","1","6067","negative","alt"
"588",17,"NA","55","English","12","6","lion","TRUE","1","4338","positive","item"
"589",17,"NA","55","English","13","5","banana","FALSE","1","1512","negative","item"
"590",17,"NA","55","English","14","0","pig","FALSE","1","2304","positive","alt"
"591",17,"NA","55","English","15","1","tree","TRUE","1","5407","positive","item"
"592",17,"NA","55","English","16","1","phone","FALSE","1","1570","positive","alt"
"593",17,"NA","55","English","17","5","horse","FALSE","1","1132","positive","alt"
"594",17,"NA","55","English","18","7","shirt","FALSE","1","1363","negative","item"
"595",17,"NA","55","English","19","6","strawberry","FALSE","1","1594","positive","alt"
"596",17,"NA","55","English","20","5","popsicle","TRUE","1","1368","positive","item"
"597",17,"NA","55","English","21","4","shoe","FALSE","1","1963","negative","item"
"598",17,"NA","55","English","22","0","duck","TRUE","1","1392","positive","item"
"599",17,"NA","55","English","23","3","pencil","FALSE","1","1312","positive","alt"
"600",17,"NA","55","English","24","0","car","TRUE","1","1688","negative","alt"
"601",17,"NA","55","English","25","2","frog","TRUE","1","1026","positive","item"
"602",17,"NA","55","English","26","7","cake","FALSE","1","1174","positive","alt"
"603",17,"NA","55","English","27","8","dog","TRUE","1","2216","negative","alt"
"604",17,"NA","55","English","28","6","crayon","TRUE","1","2040","negative","alt"
"605",17,"NA","55","English","29","3","bucket","FALSE","1","1609","negative","item"
"606",17,"NA","55","English","30","6","mitten","FALSE","1","2865","negative","item"
"607",17,"NA","55","English","31","7","cookie","TRUE","1","3225","negative","alt"
"608",17,"NA","55","English","32","2","donut","FALSE","1","3436","positive","alt"
"609",17,"NA","55","English","33","3","apple","TRUE","1","1598","positive","item"
"610",17,"NA","55","English","34","0","guitar","FALSE","1","2224","negative","item"
"611",17,"NA","55","English","35","1","key","FALSE","1","2131","negative","item"
"612",17,"NA","55","English","36","4","flower","FALSE","1","2139","positive","alt"
"613",18,"NA","55","english","1","3","shirt","FALSE","1","891","positive","alt"
"614",18,"NA","55","english","2","7","fish","TRUE","1","761","positive","item"
"615",18,"NA","55","english","3","4","bucket","TRUE","0","1071","negative","item"
"616",18,"NA","55","english","4","3","guitar","FALSE","1","1169","negative","item"
"617",18,"NA","55","english","5","5","apple","FALSE","1","1118","negative","item"
"618",18,"NA","55","english","6","6","flower","FALSE","1","1940","positive","alt"
"619",18,"NA","55","english","7","2","turtle","TRUE","1","968","positive","item"
"620",18,"NA","55","english","8","0","bike","FALSE","1","1118","positive","alt"
"621",18,"NA","55","english","9","8","purse","TRUE","1","569","positive","item"
"622",18,"NA","55","english","10","2","crayon","TRUE","1","1366","negative","alt"
"623",18,"NA","55","english","11","7","pig","FALSE","1","1078","negative","item"
"624",18,"NA","55","english","12","8","donut","TRUE","1","1233","negative","alt"
"625",18,"NA","55","english","13","6","dog","FALSE","1","1233","negative","item"
"626",18,"NA","55","english","14","5","key","FALSE","1","1248","positive","alt"
"627",18,"NA","55","english","15","2","shoe","FALSE","1","1190","positive","alt"
"628",18,"NA","55","english","16","7","horse","FALSE","1","892","positive","alt"
"629",18,"NA","55","english","17","8","balloon","FALSE","1","688","negative","item"
"630",18,"NA","55","english","18","0","phone","TRUE","1","942","positive","item"
"631",18,"NA","55","english","19","5","elephant","TRUE","1","794","positive","item"
"632",18,"NA","55","english","20","2","carrot","FALSE","1","845","negative","item"
"633",18,"NA","55","english","21","0","strawberry","TRUE","1","1268","negative","alt"
"634",18,"NA","55","english","22","0","cookie","FALSE","1","935","negative","item"
"635",18,"NA","55","english","23","6","pencil","TRUE","1","825","positive","item"
"636",18,"NA","55","english","24","1","frog","TRUE","1","643","positive","item"
"637",18,"NA","55","english","25","4","tree","TRUE","1","1295","negative","alt"
"638",18,"NA","55","english","26","8","banana","FALSE","1","1034","positive","alt"
"639",18,"NA","55","english","27","6","cow","TRUE","1","1028","negative","alt"
"640",18,"NA","55","english","28","4","car","TRUE","1","602","positive","item"
"641",18,"NA","55","english","29","3","cat","TRUE","1","1141","negative","alt"
"642",18,"NA","55","english","30","7","mitten","TRUE","1","1097","negative","alt"
"643",18,"NA","55","english","31","1","cake","FALSE","1","1178","negative","item"
"644",18,"NA","55","english","32","4","fork","FALSE","1","1257","positive","alt"
"645",18,"NA","55","english","33","1","popsicle","FALSE","1","809","positive","alt"
"646",18,"NA","55","english","34","5","lion","TRUE","1","1037","negative","alt"
"647",18,"NA","55","english","35","3","bus","TRUE","1","627","positive","item"
"648",18,"NA","55","english","36","1","duck","TRUE","1","1097","negative","alt"
"649",19,"NA","65","English","1","5","phone","FALSE","1","1015","positive","alt"
"650",19,"NA","65","English","2","2","turtle","TRUE","1","1308","negative","alt"
"651",19,"NA","65","English","3","7","cat","TRUE","0","882","positive","alt"
"652",19,"NA","65","English","4","8","horse","FALSE","1","1385","positive","alt"
"653",19,"NA","65","English","5","5","guitar","FALSE","1","1406","negative","item"
"654",19,"NA","65","English","6","0","apple","TRUE","1","1949","negative","alt"
"655",19,"NA","65","English","7","8","crayon","TRUE","1","1110","positive","item"
"656",19,"NA","65","English","8","4","shoe","FALSE","1","1339","negative","item"
"657",19,"NA","65","English","9","3","duck","FALSE","1","1397","positive","alt"
"658",19,"NA","65","English","10","1","cow","FALSE","1","1091","positive","alt"
"659",19,"NA","65","English","11","2","mitten","FALSE","1","1333","positive","alt"
"660",19,"NA","65","English","12","0","carrot","TRUE","1","863","positive","item"
"661",19,"NA","65","English","13","4","car","TRUE","1","731","positive","item"
"662",19,"NA","65","English","14","0","strawberry","FALSE","1","927","positive","alt"
"663",19,"NA","65","English","15","5","key","TRUE","1","702","positive","item"
"664",19,"NA","65","English","16","3","popsicle","FALSE","1","1747","negative","item"
"665",19,"NA","65","English","17","2","dog","TRUE","1","742","positive","item"
"666",19,"NA","65","English","18","0","donut","FALSE","1","1523","negative","item"
"667",19,"NA","65","English","19","6","purse","TRUE","1","1112","positive","item"
"668",19,"NA","65","English","20","6","tree","TRUE","1","1508","negative","alt"
"669",19,"NA","65","English","21","7","bus","TRUE","1","1026","positive","item"
"670",19,"NA","65","English","22","7","banana","FALSE","1","1251","negative","item"
"671",19,"NA","65","English","23","4","elephant","FALSE","1","1308","positive","alt"
"672",19,"NA","65","English","24","8","frog","TRUE","1","1781","negative","alt"
"673",19,"NA","65","English","25","1","flower","TRUE","1","1537","negative","alt"
"674",19,"NA","65","English","26","6","bucket","FALSE","1","1190","positive","alt"
"675",19,"NA","65","English","27","3","shirt","TRUE","1","888","positive","item"
"676",19,"NA","65","English","28","2","balloon","FALSE","1","1134","negative","item"
"677",19,"NA","65","English","29","1","fish","TRUE","1","843","positive","item"
"678",19,"NA","65","English","30","3","cookie","TRUE","1","1405","negative","alt"
"679",19,"NA","65","English","31","1","bike","FALSE","1","1089","negative","item"
"680",19,"NA","65","English","32","5","cake","TRUE","1","1263","negative","alt"
"681",19,"NA","65","English","33","7","fork","TRUE","1","1393","negative","alt"
"682",19,"NA","65","English","34","8","pencil","FALSE","1","1150","negative","item"
"683",19,"NA","65","English","35","4","lion","TRUE","1","1099","negative","alt"
"684",19,"NA","65","English","36","6","pig","FALSE","1","1674","negative","item"
"685",20,"NA","35","English","1","1","lion","TRUE","1","637","positive","item"
"686",20,"NA","35","English","2","7","shoe","FALSE","1","684","positive","alt"
"687",20,"NA","35","English","3","4","fork","TRUE","0","1028","negative","item"
"688",20,"NA","35","English","4","4","phone","FALSE","1","559","positive","alt"
"689",20,"NA","35","English","5","3","key","TRUE","0","555","negative","item"
"690",20,"NA","35","English","6","5","cake","FALSE","1","679","positive","alt"
"691",20,"NA","35","English","7","5","fish","TRUE","1","1139","negative","alt"
"692",20,"NA","35","English","8","1","cookie","TRUE","0","613","negative","item"
"693",20,"NA","35","English","9","6","apple","FALSE","1","1350","positive","alt"
"694",20,"NA","35","English","10","7","popsicle","FALSE","1","1085","negative","item"
"695",20,"NA","35","English","11","6","balloon","TRUE","1","1284","positive","item"
"696",20,"NA","35","English","12","6","mitten","TRUE","1","1361","negative","alt"
"697",20,"NA","35","English","13","0","horse","FALSE","1","941","negative","item"
"698",20,"NA","35","English","14","0","turtle","FALSE","1","1400","positive","alt"
"699",20,"NA","35","English","15","2","crayon","TRUE","1","1066","negative","alt"
"700",20,"NA","35","English","16","4","flower","TRUE","1","1487","negative","alt"
"701",20,"NA","35","English","17","0","dog","TRUE","1","626","positive","item"
"702",20,"NA","35","English","18","2","donut","FALSE","1","678","negative","item"
"703",20,"NA","35","English","19","3","guitar","TRUE","1","1558","negative","alt"
"704",20,"NA","35","English","20","7","bike","TRUE","1","899","positive","item"
"705",20,"NA","35","English","21","8","frog","FALSE","1","972","negative","item"
"706",20,"NA","35","English","22","1","car","TRUE","1","1216","negative","alt"
"707",20,"NA","35","English","23","5","pencil","FALSE","1","717","negative","item"
"708",20,"NA","35","English","24","8","cat","FALSE","1","1089","positive","alt"
"709",20,"NA","35","English","25","2","tree","FALSE","1","1144","positive","alt"
"710",20,"NA","35","English","26","5","shirt","TRUE","1","1689","positive","item"
"711",20,"NA","35","English","27","3","bus","FALSE","1","1224","positive","alt"
"712",20,"NA","35","English","28","2","cow","TRUE","1","1278","positive","item"
"713",20,"NA","35","English","29","1","strawberry","FALSE","1","1181","positive","alt"
"714",20,"NA","35","English","30","7","duck","TRUE","1","895","negative","alt"
"715",20,"NA","35","English","31","8","carrot","TRUE","1","1054","positive","item"
"716",20,"NA","35","English","32","0","elephant","TRUE","1","1570","negative","alt"
"717",20,"NA","35","English","33","3","purse","TRUE","1","1276","positive","item"
"718",20,"NA","35","English","34","8","banana","TRUE","1","895","negative","alt"
"719",20,"NA","35","English","35","4","bucket","TRUE","1","1483","positive","item"
"720",20,"NA","35","English","36","6","pig","FALSE","1","1219","negative","item"
"721",21,"NA","45","English","1","8","phone","FALSE","1","1349","positive","alt"
"722",21,"NA","45","English","2","1","pig","FALSE","1","1186","positive","alt"
"723",21,"NA","45","English","3","5","turtle","FALSE","1","953","positive","alt"
"724",21,"NA","45","English","4","0","horse","TRUE","1","1359","negative","alt"
"725",21,"NA","45","English","5","4","fish","TRUE","1","1000","positive","item"
"726",21,"NA","45","English","6","1","apple","TRUE","1","762","positive","item"
"727",21,"NA","45","English","7","1","tree","TRUE","1","1467","negative","alt"
"728",21,"NA","45","English","8","7","key","TRUE","1","558","positive","item"
"729",21,"NA","45","English","9","2","pencil","TRUE","1","858","positive","item"
"730",21,"NA","45","English","10","1","car","FALSE","1","1146","negative","item"
"731",21,"NA","45","English","11","3","shirt","FALSE","1","955","positive","alt"
"732",21,"NA","45","English","12","3","guitar","TRUE","1","1782","negative","alt"
"733",21,"NA","45","English","13","5","dog","FALSE","1","841","negative","item"
"734",21,"NA","45","English","14","2","lion","TRUE","1","1449","negative","alt"
"735",21,"NA","45","English","15","5","bus","FALSE","0","986","negative","alt"
"736",21,"NA","45","English","16","6","donut","FALSE","1","1735","negative","item"
"737",21,"NA","45","English","17","2","popsicle","FALSE","1","1322","positive","alt"
"738",21,"NA","45","English","18","8","purse","TRUE","1","1107","negative","alt"
"739",21,"NA","45","English","19","0","strawberry","TRUE","1","752","positive","item"
"740",21,"NA","45","English","20","3","duck","TRUE","1","664","positive","item"
"741",21,"NA","45","English","21","0","cookie","FALSE","1","734","positive","alt"
"742",21,"NA","45","English","22","4","cat","TRUE","1","1326","negative","alt"
"743",21,"NA","45","English","23","4","balloon","FALSE","1","1241","negative","item"
"744",21,"NA","45","English","24","7","elephant","FALSE","1","964","positive","alt"
"745",21,"NA","45","English","25","7","bike","TRUE","1","1158","negative","alt"
"746",21,"NA","45","English","26","5","cow","TRUE","1","795","positive","item"
"747",21,"NA","45","English","27","7","banana","FALSE","1","768","negative","item"
"748",21,"NA","45","English","28","8","fork","FALSE","1","818","negative","item"
"749",21,"NA","45","English","29","4","cake","FALSE","1","1890","positive","alt"
"750",21,"NA","45","English","30","2","carrot","FALSE","1","822","negative","item"
"751",21,"NA","45","English","31","6","mitten","FALSE","1","946","positive","alt"
"752",21,"NA","45","English","32","3","crayon","FALSE","1","818","negative","item"
"753",21,"NA","45","English","33","6","frog","TRUE","1","1203","negative","alt"
"754",21,"NA","45","English","34","0","shoe","FALSE","1","894","negative","item"
"755",21,"NA","45","English","35","6","flower","TRUE","1","610","positive","item"
"756",21,"NA","45","English","36","8","bucket","TRUE","1","651","positive","item"
"757",22,"NA","35","english","1","3","frog","FALSE","1","2662","negative","item"
"758",22,"NA","35","english","2","5","key","FALSE","1","1168","negative","item"
"759",22,"NA","35","english","3","0","cake","FALSE","1","1615","positive","alt"
"760",22,"NA","35","english","4","4","pencil","TRUE","1","1192","positive","item"
"761",22,"NA","35","english","5","3","banana","TRUE","1","936","positive","item"
"762",22,"NA","35","english","6","2","car","FALSE","1","1416","negative","item"
"763",22,"NA","35","english","7","3","duck","TRUE","1","2856","negative","alt"
"764",22,"NA","35","english","8","0","shoe","FALSE","1","1312","negative","item"
"765",22,"NA","35","english","9","8","balloon","TRUE","1","1826","negative","alt"
"766",22,"NA","35","english","10","2","strawberry","TRUE","1","1744","positive","item"
"767",22,"NA","35","english","11","2","turtle","FALSE","1","1393","positive","alt"
"768",22,"NA","35","english","12","4","shirt","FALSE","1","2113","negative","item"
"769",22,"NA","35","english","13","1","pig","TRUE","1","4546","negative","alt"
"770",22,"NA","35","english","14","6","apple","FALSE","1","2753","negative","item"
"771",22,"NA","35","english","15","4","elephant","TRUE","1","2545","negative","alt"
"772",22,"NA","35","english","16","7","bus","FALSE","1","2457","negative","item"
"773",22,"NA","35","english","17","5","cookie","TRUE","1","1313","negative","alt"
"774",22,"NA","35","english","18","8","horse","FALSE","1","1662","positive","alt"
"775",22,"NA","35","english","19","6","bucket","TRUE","1","2792","positive","item"
"776",22,"NA","35","english","20","0","fish","TRUE","1","1713","negative","alt"
"777",22,"NA","35","english","21","6","carrot","FALSE","1","1816","positive","alt"
"778",22,"NA","35","english","22","0","crayon","TRUE","1","1617","positive","item"
"779",22,"NA","35","english","23","5","purse","FALSE","1","1609","positive","alt"
"780",22,"NA","35","english","24","8","bike","TRUE","1","1553","positive","item"
"781",22,"NA","35","english","25","1","popsicle","FALSE","1","1417","positive","alt"
"782",22,"NA","35","english","26","7","tree","FALSE","1","1704","positive","alt"
"783",22,"NA","35","english","27","1","fork","FALSE","1","1282","negative","item"
"784",22,"NA","35","english","28","2","guitar","FALSE","0","1632","negative","alt"
"785",22,"NA","35","english","29","4","cat","FALSE","1","1184","positive","alt"
"786",22,"NA","35","english","30","1","cow","TRUE","1","1391","positive","item"
"787",22,"NA","35","english","31","8","donut","FALSE","1","873","negative","item"
"788",22,"NA","35","english","32","7","mitten","TRUE","1","1399","positive","item"
"789",22,"NA","35","english","33","6","dog","FALSE","0","1273","negative","alt"
"790",22,"NA","35","english","34","3","phone","FALSE","1","801","positive","alt"
"791",22,"NA","35","english","35","7","flower","TRUE","1","1289","negative","alt"
"792",22,"NA","35","english","36","5","lion","TRUE","1","887","positive","item"
"793",23,"NA","35","English","1","7","crayon","FALSE","1","2911","negative","item"
"794",23,"NA","35","English","2","8","banana","TRUE","1","1783","positive","item"
"795",23,"NA","35","English","3","2","popsicle","FALSE","1","7356","negative","item"
"796",23,"NA","35","English","4","5","shirt","TRUE","1","1354","positive","item"
"797",23,"NA","35","English","5","5","cow","TRUE","1","4528","negative","alt"
"798",23,"NA","35","English","6","6","carrot","FALSE","1","2224","negative","item"
"799",23,"NA","35","English","7","5","phone","FALSE","1","1786","positive","alt"
"800",23,"NA","35","English","8","3","purse","FALSE","1","2271","positive","alt"
"801",23,"NA","35","English","9","1","dog","TRUE","1","1944","negative","alt"
"802",23,"NA","35","English","10","8","mitten","FALSE","1","2555","positive","alt"
"803",23,"NA","35","English","11","0","car","TRUE","1","4092","negative","alt"
"804",23,"NA","35","English","12","7","donut","TRUE","1","4106","positive","item"
"805",23,"NA","35","English","13","5","cake","FALSE","1","12959","negative","item"
"806",23,"NA","35","English","14","4","tree","FALSE","1","4345","negative","item"
"807",23,"NA","35","English","15","8","bus","FALSE","1","3543","negative","item"
"808",23,"NA","35","English","16","4","strawberry","TRUE","1","1883","negative","alt"
"809",23,"NA","35","English","17","1","pencil","FALSE","1","7846","positive","alt"
"810",23,"NA","35","English","18","3","turtle","FALSE","1","4587","negative","item"
"811",23,"NA","35","English","19","8","balloon","TRUE","1","2109","negative","alt"
"812",23,"NA","35","English","20","1","shoe","FALSE","1","2599","negative","item"
"813",23,"NA","35","English","21","2","horse","TRUE","1","1739","positive","item"
"814",23,"NA","35","English","22","1","cookie","TRUE","1","3611","positive","item"
"815",23,"NA","35","English","23","6","guitar","TRUE","1","1794","positive","item"
"816",23,"NA","35","English","24","2","duck","FALSE","1","1495","positive","alt"
"817",23,"NA","35","English","25","4","fish","TRUE","1","1034","positive","item"
"818",23,"NA","35","English","26","7","flower","TRUE","1","2450","negative","alt"
"819",23,"NA","35","English","27","0","fork","TRUE","1","1901","positive","item"
"820",23,"NA","35","English","28","0","cat","FALSE","1","1600","positive","alt"
"821",23,"NA","35","English","29","6","elephant","TRUE","1","2573","negative","alt"
"822",23,"NA","35","English","30","2","frog","TRUE","1","4615","negative","alt"
"823",23,"NA","35","English","31","3","bucket","TRUE","1","12583","negative","alt"
"824",23,"NA","35","English","32","4","lion","FALSE","1","2414","positive","alt"
"825",23,"NA","35","English","33","0","bike","FALSE","1","2341","negative","item"
"826",23,"NA","35","English","34","6","pig","FALSE","1","4309","positive","alt"
"827",23,"NA","35","English","35","7","apple","FALSE","1","1827","positive","alt"
"828",23,"NA","35","English","36","3","key","TRUE","1","3166","positive","item"
"829",24,"NA","35","English","1","3","lion","FALSE","0","656","negative","alt"
"830",24,"NA","35","English","2","4","donut","TRUE","1","1411","negative","alt"
"831",24,"NA","35","English","3","2","flower","FALSE","1","1832","positive","alt"
"832",24,"NA","35","English","4","8","fish","TRUE","1","1291","positive","item"
"833",24,"NA","35","English","5","6","shoe","TRUE","1","1609","negative","alt"
"834",24,"NA","35","English","6","1","purse","FALSE","1","1364","negative","item"
"835",24,"NA","35","English","7","7","key","TRUE","1","1293","negative","alt"
"836",24,"NA","35","English","8","7","shirt","TRUE","1","1196","positive","item"
"837",24,"NA","35","English","9","0","strawberry","FALSE","1","1594","positive","alt"
"838",24,"NA","35","English","10","3","bike","FALSE","1","1226","negative","item"
"839",24,"NA","35","English","11","2","bus","TRUE","1","795","positive","item"
"840",24,"NA","35","English","12","5","popsicle","FALSE","1","1383","positive","alt"
"841",24,"NA","35","English","13","1","pig","FALSE","1","1426","positive","alt"
"842",24,"NA","35","English","14","3","phone","FALSE","1","1167","positive","alt"
"843",24,"NA","35","English","15","8","balloon","FALSE","1","2129","positive","alt"
"844",24,"NA","35","English","16","7","banana","FALSE","1","974","negative","item"
"845",24,"NA","35","English","17","6","fork","FALSE","1","1066","negative","item"
"846",24,"NA","35","English","18","2","apple","TRUE","1","1203","negative","alt"
"847",24,"NA","35","English","19","5","carrot","FALSE","1","1292","negative","item"
"848",24,"NA","35","English","20","0","horse","TRUE","1","1602","negative","alt"
"849",24,"NA","35","English","21","4","frog","TRUE","1","1920","positive","item"
"850",24,"NA","35","English","22","3","cookie","TRUE","1","1507","positive","item"
"851",24,"NA","35","English","23","0","cake","TRUE","1","1419","positive","item"
"852",24,"NA","35","English","24","2","bucket","FALSE","1","1493","negative","item"
"853",24,"NA","35","English","25","4","car","FALSE","1","15813","negative","item"
"854",24,"NA","35","English","26","5","cow","TRUE","1","592","positive","item"
"855",24,"NA","35","English","27","8","guitar","FALSE","1","767","negative","item"
"856",24,"NA","35","English","28","5","crayon","TRUE","1","1277","negative","alt"
"857",24,"NA","35","English","29","0","turtle","FALSE","1","1375","negative","item"
"858",24,"NA","35","English","30","1","dog","TRUE","1","1006","negative","alt"
"859",24,"NA","35","English","31","6","cat","FALSE","1","908","positive","alt"
"860",24,"NA","35","English","32","1","mitten","TRUE","1","794","positive","item"
"861",24,"NA","35","English","33","8","pencil","TRUE","1","1105","negative","alt"
"862",24,"NA","35","English","34","6","tree","TRUE","1","7531","positive","item"
"863",24,"NA","35","English","35","7","duck","FALSE","1","3090","positive","alt"
"864",24,"NA","35","English","36","4","elephant","FALSE","1","1111","positive","alt"
"865",25,"NA","25","English","1","8","balloon","TRUE","1","623","positive","item"
"866",25,"NA","25","English","2","0","frog","FALSE","1","3657","negative","item"
"867",25,"NA","25","English","3","5","banana","FALSE","1","1063","negative","item"
"868",25,"NA","25","English","4","6","car","TRUE","1","1111","positive","item"
"869",25,"NA","25","English","5","6","crayon","FALSE","1","2227","negative","item"
"870",25,"NA","25","English","6","6","key","TRUE","1","2064","negative","alt"
"871",25,"NA","25","English","7","2","mitten","FALSE","1","1469","negative","item"
"872",25,"NA","25","English","8","4","cow","TRUE","1","1191","negative","alt"
"873",25,"NA","25","English","9","2","popsicle","TRUE","1","1500","positive","item"
"874",25,"NA","25","English","10","4","cookie","FALSE","1","3908","negative","item"
"875",25,"NA","25","English","11","0","shirt","TRUE","1","2188","negative","alt"
"876",25,"NA","25","English","12","4","strawberry","FALSE","1","1547","positive","alt"
"877",25,"NA","25","English","13","7","shoe","FALSE","1","2989","positive","alt"
"878",25,"NA","25","English","14","3","duck","FALSE","1","3095","positive","alt"
"879",25,"NA","25","English","15","5","bucket","TRUE","1","1346","negative","alt"
"880",25,"NA","25","English","16","5","donut","FALSE","1","2157","positive","alt"
"881",25,"NA","25","English","17","1","fork","FALSE","1","1673","positive","alt"
"882",25,"NA","25","English","18","3","fish","TRUE","1","2688","negative","alt"
"883",25,"NA","25","English","19","3","bike","TRUE","1","938","positive","item"
"884",25,"NA","25","English","20","8","phone","TRUE","1","3282","negative","alt"
"885",25,"NA","25","English","21","7","turtle","TRUE","1","2205","negative","alt"
"886",25,"NA","25","English","22","2","carrot","FALSE","1","1001","positive","alt"
"887",25,"NA","25","English","23","0","pencil","TRUE","1","922","positive","item"
"888",25,"NA","25","English","24","1","bus","FALSE","1","1421","negative","item"
"889",25,"NA","25","English","25","1","lion","TRUE","1","3235","negative","alt"
"890",25,"NA","25","English","26","6","dog","FALSE","1","1564","positive","alt"
"891",25,"NA","25","English","27","8","guitar","FALSE","1","1152","positive","alt"
"892",25,"NA","25","English","28","7","apple","TRUE","1","3017","positive","item"
"893",25,"NA","25","English","29","8","tree","FALSE","1","2576","negative","item"
"894",25,"NA","25","English","30","2","elephant","TRUE","1","1315","negative","alt"
"895",25,"NA","25","English","31","7","horse","FALSE","1","1747","negative","item"
"896",25,"NA","25","English","32","0","cake","FALSE","1","3231","positive","alt"
"897",25,"NA","25","English","33","4","purse","TRUE","1","1187","positive","item"
"898",25,"NA","25","English","34","1","pig","TRUE","1","1703","positive","item"
"899",25,"NA","25","English","35","5","cat","TRUE","1","1718","positive","item"
"900",25,"NA","25","English","36","3","flower","FALSE","1","1254","negative","item"
"901",26,"NA","55","english","1","6","duck","TRUE","1","1468","negative","alt"
"902",26,"NA","55","english","2","5","fork","TRUE","1","944","positive","item"
"903",26,"NA","55","english","3","6","cat","TRUE","1","769","positive","item"
"904",26,"NA","55","english","4","0","bike","TRUE","1","1117","negative","alt"
"905",26,"NA","55","english","5","5","cookie","FALSE","1","947","positive","alt"
"906",26,"NA","55","english","6","7","carrot","FALSE","1","999","negative","item"
"907",26,"NA","55","english","7","2","cow","FALSE","1","1401","positive","alt"
"908",26,"NA","55","english","8","3","frog","FALSE","1","746","negative","item"
"909",26,"NA","55","english","9","6","crayon","FALSE","1","751","positive","alt"
"910",26,"NA","55","english","10","7","balloon","FALSE","1","671","positive","alt"
"911",26,"NA","55","english","11","4","car","TRUE","1","607","positive","item"
"912",26,"NA","55","english","12","3","purse","TRUE","1","1245","positive","item"
"913",26,"NA","55","english","13","5","tree","FALSE","1","830","negative","item"
"914",26,"NA","55","english","14","5","guitar","TRUE","1","974","negative","alt"
"915",26,"NA","55","english","15","1","shirt","FALSE","1","539","negative","item"
"916",26,"NA","55","english","16","0","horse","FALSE","1","676","negative","item"
"917",26,"NA","55","english","17","8","pig","FALSE","1","752","positive","alt"
"918",26,"NA","55","english","18","4","banana","FALSE","1","889","negative","item"
"919",26,"NA","55","english","19","1","elephant","FALSE","1","982","positive","alt"
"920",26,"NA","55","english","20","7","turtle","TRUE","1","1255","negative","alt"
"921",26,"NA","55","english","21","3","lion","TRUE","1","1252","negative","alt"
"922",26,"NA","55","english","22","2","dog","TRUE","1","774","positive","item"
"923",26,"NA","55","english","23","4","fish","FALSE","1","755","positive","alt"
"924",26,"NA","55","english","24","3","popsicle","FALSE","1","1518","positive","alt"
"925",26,"NA","55","english","25","0","bucket","FALSE","1","625","positive","alt"
"926",26,"NA","55","english","26","0","cake","TRUE","1","1346","positive","item"
"927",26,"NA","55","english","27","8","donut","TRUE","1","925","negative","alt"
"928",26,"NA","55","english","28","2","flower","TRUE","1","925","negative","alt"
"929",26,"NA","55","english","29","1","shoe","TRUE","1","582","positive","item"
"930",26,"NA","55","english","30","2","mitten","FALSE","1","880","negative","item"
"931",26,"NA","55","english","31","1","apple","TRUE","1","704","negative","alt"
"932",26,"NA","55","english","32","8","pencil","FALSE","1","1039","negative","item"
"933",26,"NA","55","english","33","7","phone","TRUE","1","561","positive","item"
"934",26,"NA","55","english","34","4","bus","TRUE","1","670","negative","alt"
"935",26,"NA","55","english","35","8","key","TRUE","1","439","positive","item"
"936",26,"NA","55","english","36","6","strawberry","FALSE","1","581","negative","item"
"937",27,"NA","55","english","1","0","pencil","FALSE","0","812","negative","alt"
"938",27,"NA","55","english","2","6","carrot","FALSE","1","1056","negative","item"
"939",27,"NA","55","english","3","3","cake","FALSE","0","1551","negative","alt"
"940",27,"NA","55","english","4","6","bike","TRUE","1","1058","positive","item"
"941",27,"NA","55","english","5","8","duck","TRUE","1","887","positive","item"
"942",27,"NA","55","english","6","8","car","TRUE","1","1643","negative","alt"
"943",27,"NA","55","english","7","1","purse","FALSE","1","805","negative","item"
"944",27,"NA","55","english","8","5","lion","TRUE","1","918","positive","item"
"945",27,"NA","55","english","9","8","shoe","FALSE","1","727","negative","item"
"946",27,"NA","55","english","10","2","phone","TRUE","0","1389","positive","alt"
"947",27,"NA","55","english","11","6","balloon","FALSE","1","1838","positive","alt"
"948",27,"NA","55","english","12","7","apple","TRUE","1","1312","negative","alt"
"949",27,"NA","55","english","13","6","crayon","TRUE","1","1694","negative","alt"
"950",27,"NA","55","english","14","0","frog","TRUE","1","1213","positive","item"
"951",27,"NA","55","english","15","5","key","TRUE","1","1169","negative","alt"
"952",27,"NA","55","english","16","4","mitten","TRUE","1","984","positive","item"
"953",27,"NA","55","english","17","7","bus","FALSE","1","1046","positive","alt"
"954",27,"NA","55","english","18","3","cow","TRUE","1","851","positive","item"
"955",27,"NA","55","english","19","3","cat","FALSE","1","1157","negative","item"
"956",27,"NA","55","english","20","8","shirt","FALSE","1","934","positive","alt"
"957",27,"NA","55","english","21","4","banana","TRUE","1","1376","negative","alt"
"958",27,"NA","55","english","22","0","cookie","FALSE","1","1093","positive","alt"
"959",27,"NA","55","english","23","4","fish","TRUE","0","1025","negative","item"
"960",27,"NA","55","english","24","2","tree","TRUE","1","1504","negative","alt"
"961",27,"NA","55","english","25","0","popsicle","FALSE","1","1226","negative","item"
"962",27,"NA","55","english","26","3","guitar","TRUE","0","1107","positive","alt"
"963",27,"NA","55","english","27","1","turtle","FALSE","1","1614","positive","alt"
"964",27,"NA","55","english","28","1","donut","TRUE","1","733","positive","item"
"965",27,"NA","55","english","29","5","fork","FALSE","1","1127","negative","item"
"966",27,"NA","55","english","30","7","pig","FALSE","1","775","negative","item"
"967",27,"NA","55","english","31","4","strawberry","FALSE","1","1111","positive","alt"
"968",27,"NA","55","english","32","7","flower","TRUE","1","1170","positive","item"
"969",27,"NA","55","english","33","5","bucket","TRUE","0","1271","positive","alt"
"970",27,"NA","55","english","34","2","dog","FALSE","1","1842","negative","item"
"971",27,"NA","55","english","35","1","elephant","TRUE","1","1345","negative","alt"
"972",27,"NA","55","english","36","2","horse","TRUE","1","833","positive","item"
"973",28,"NA","35","English","1","1","fish","TRUE","1","1550","negative","alt"
"974",28,"NA","35","English","2","0","shirt","FALSE","1","1470","negative","item"
"975",28,"NA","35","English","3","7","guitar","TRUE","1","1861","negative","alt"
"976",28,"NA","35","English","4","4","strawberry","FALSE","1","1139","positive","alt"
"977",28,"NA","35","English","5","5","bus","TRUE","1","956","positive","item"
"978",28,"NA","35","English","6","2","mitten","FALSE","1","761","positive","alt"
"979",28,"NA","35","English","7","0","elephant","FALSE","1","794","positive","alt"
"980",28,"NA","35","English","8","8","cake","FALSE","1","818","positive","alt"
"981",28,"NA","35","English","9","4","tree","FALSE","1","1205","negative","item"
"982",28,"NA","35","English","10","8","phone","FALSE","1","1057","negative","item"
"983",28,"NA","35","English","11","8","purse","TRUE","1","1131","negative","alt"
"984",28,"NA","35","English","12","3","shoe","FALSE","1","1342","positive","alt"
"985",28,"NA","35","English","13","5","duck","FALSE","1","979","negative","item"
"986",28,"NA","35","English","14","4","car","TRUE","1","807","positive","item"
"987",28,"NA","35","English","15","8","frog","TRUE","1","818","positive","item"
"988",28,"NA","35","English","16","0","horse","TRUE","1","1543","positive","item"
"989",28,"NA","35","English","17","6","donut","FALSE","1","785","negative","item"
"990",28,"NA","35","English","18","2","banana","TRUE","1","1526","positive","item"
"991",28,"NA","35","English","19","5","carrot","TRUE","1","1149","negative","alt"
"992",28,"NA","35","English","20","5","pencil","FALSE","1","1039","positive","alt"
"993",28,"NA","35","English","21","3","cat","TRUE","1","977","negative","alt"
"994",28,"NA","35","English","22","6","flower","TRUE","1","1110","negative","alt"
"995",28,"NA","35","English","23","6","crayon","FALSE","1","1368","positive","alt"
"996",28,"NA","35","English","24","3","balloon","FALSE","1","1145","negative","item"
"997",28,"NA","35","English","25","1","key","FALSE","1","2503","positive","alt"
"998",28,"NA","35","English","26","2","cow","FALSE","1","1359","negative","item"
"999",28,"NA","35","English","27","1","popsicle","TRUE","1","1326","positive","item"
"1000",28,"NA","35","English","28","7","lion","TRUE","1","820","positive","item"
"1001",28,"NA","35","English","29","3","turtle","TRUE","1","914","positive","item"
"1002",28,"NA","35","English","30","2","pig","TRUE","1","1401","negative","alt"
"1003",28,"NA","35","English","31","7","bucket","FALSE","1","1135","negative","item"
"1004",28,"NA","35","English","32","6","dog","TRUE","1","830","positive","item"
"1005",28,"NA","35","English","33","0","apple","TRUE","1","1598","negative","alt"
"1006",28,"NA","35","English","34","4","bike","FALSE","0","1174","negative","alt"
"1007",28,"NA","35","English","35","7","fork","FALSE","1","1294","positive","alt"
"1008",28,"NA","35","English","36","1","cookie","FALSE","1","1337","negative","item"
"1009",29,"NA","55","English","1","1","shoe","TRUE","1","1886","negative","alt"
"1010",29,"NA","55","English","2","6","popsicle","TRUE","1","1396","positive","item"
"1011",29,"NA","55","English","3","5","strawberry","FALSE","1","1681","positive","alt"
"1012",29,"NA","55","English","4","2","cat","FALSE","1","1220","positive","alt"
"1013",29,"NA","55","English","5","2","shirt","TRUE","1","1688","negative","alt"
"1014",29,"NA","55","English","6","8","crayon","FALSE","1","1205","negative","item"
"1015",29,"NA","55","English","7","8","frog","FALSE","1","1022","positive","alt"
"1016",29,"NA","55","English","8","2","pig","FALSE","1","1646","negative","item"
"1017",29,"NA","55","English","9","3","cow","FALSE","1","1378","negative","item"
"1018",29,"NA","55","English","10","3","turtle","TRUE","1","1745","positive","item"
"1019",29,"NA","55","English","11","1","guitar","FALSE","1","1159","positive","alt"
"1020",29,"NA","55","English","12","4","car","TRUE","1","2493","negative","alt"
"1021",29,"NA","55","English","13","4","carrot","TRUE","1","1463","positive","item"
"1022",29,"NA","55","English","14","7","pencil","FALSE","1","1447","positive","alt"
"1023",29,"NA","55","English","15","2","cookie","TRUE","1","1420","positive","item"
"1024",29,"NA","55","English","16","0","donut","TRUE","1","1732","negative","alt"
"1025",29,"NA","55","English","17","7","balloon","FALSE","1","1414","negative","item"
"1026",29,"NA","55","English","18","3","duck","TRUE","0","1378","positive","alt"
"1027",29,"NA","55","English","19","7","banana","TRUE","1","1405","negative","alt"
"1028",29,"NA","55","English","20","3","bus","TRUE","1","1143","negative","alt"
"1029",29,"NA","55","English","21","7","purse","TRUE","1","1318","positive","item"
"1030",29,"NA","55","English","22","0","fish","FALSE","1","1112","positive","alt"
"1031",29,"NA","55","English","23","4","flower","FALSE","1","1796","positive","alt"
"1032",29,"NA","55","English","24","6","dog","FALSE","1","1136","positive","alt"
"1033",29,"NA","55","English","25","8","bike","TRUE","1","1285","positive","item"
"1034",29,"NA","55","English","26","5","horse","TRUE","1","1699","negative","alt"
"1035",29,"NA","55","English","27","6","mitten","FALSE","1","2352","negative","item"
"1036",29,"NA","55","English","28","6","elephant","TRUE","1","1386","negative","alt"
"1037",29,"NA","55","English","29","8","phone","TRUE","1","1375","negative","alt"
"1038",29,"NA","55","English","30","5","fork","FALSE","1","1085","negative","item"
"1039",29,"NA","55","English","31","1","bucket","TRUE","1","1303","positive","item"
"1040",29,"NA","55","English","32","4","cake","FALSE","1","1006","negative","item"
"1041",29,"NA","55","English","33","0","lion","TRUE","1","931","positive","item"
"1042",29,"NA","55","English","34","5","apple","TRUE","1","897","positive","item"
"1043",29,"NA","55","English","35","1","tree","FALSE","1","993","negative","item"
"1044",29,"NA","55","English","36","0","key","FALSE","1","1172","negative","item"
"1045",30,"NA","35","English","1","2","frog","FALSE","1","6005","negative","item"
"1046",30,"NA","35","English","2","3","balloon","TRUE","1","11221","positive","item"
"1047",30,"NA","35","English","3","7","strawberry","TRUE","1","3705","negative","alt"
"1048",30,"NA","35","English","4","4","shirt","TRUE","1","2275","negative","alt"
"1049",30,"NA","35","English","5","4","turtle","TRUE","1","1856","positive","item"
"1050",30,"NA","35","English","6","6","car","TRUE","1","1369","positive","item"
"1051",30,"NA","35","English","7","6","cake","FALSE","1","2952","positive","alt"
"1052",30,"NA","35","English","8","1","cow","TRUE","1","2160","negative","alt"
"1053",30,"NA","35","English","9","3","lion","FALSE","1","1816","negative","item"
"1054",30,"NA","35","English","10","2","bike","TRUE","1","1746","negative","alt"
"1055",30,"NA","35","English","11","3","popsicle","TRUE","0","3871","positive","alt"
"1056",30,"NA","35","English","12","5","key","TRUE","1","1585","negative","alt"
"1057",30,"NA","35","English","13","7","pencil","TRUE","1","1463","positive","item"
"1058",30,"NA","35","English","14","8","horse","TRUE","1","1114","positive","item"
"1059",30,"NA","35","English","15","4","purse","FALSE","1","1878","negative","item"
"1060",30,"NA","35","English","16","7","guitar","FALSE","1","2042","positive","alt"
"1061",30,"NA","35","English","17","0","elephant","TRUE","1","2191","negative","alt"
"1062",30,"NA","35","English","18","1","tree","FALSE","1","1930","positive","alt"
"1063",30,"NA","35","English","19","2","cat","FALSE","1","1695","positive","alt"
"1064",30,"NA","35","English","20","5","shoe","FALSE","1","1377","positive","alt"
"1065",30,"NA","35","English","21","1","phone","TRUE","1","1641","positive","item"
"1066",30,"NA","35","English","22","8","apple","TRUE","1","1370","negative","alt"
"1067",30,"NA","35","English","23","3","duck","TRUE","1","1822","negative","alt"
"1068",30,"NA","35","English","24","8","dog","FALSE","1","2601","positive","alt"
"1069",30,"NA","35","English","25","4","mitten","TRUE","0","2127","positive","alt"
"1070",30,"NA","35","English","26","1","flower","FALSE","1","1418","negative","item"
"1071",30,"NA","35","English","27","5","bucket","FALSE","1","1808","negative","item"
"1072",30,"NA","35","English","28","7","fork","FALSE","1","1628","negative","item"
"1073",30,"NA","35","English","29","8","bus","FALSE","1","1591","negative","item"
"1074",30,"NA","35","English","30","2","crayon","TRUE","1","2971","positive","item"
"1075",30,"NA","35","English","31","0","banana","TRUE","1","1143","positive","item"
"1076",30,"NA","35","English","32","0","cookie","FALSE","1","1705","negative","item"
"1077",30,"NA","35","English","33","0","carrot","FALSE","1","1870","positive","alt"
"1078",30,"NA","35","English","34","6","donut","FALSE","1","2105","negative","item"
"1079",30,"NA","35","English","35","6","fish","TRUE","1","1550","negative","alt"
"1080",30,"NA","35","English","36","5","pig","TRUE","1","1010","positive","item"
"1081",31,"NA","35","English","1","8","fork","FALSE","0","1436","negative","alt"
"1082",31,"NA","35","English","2","8","mitten","TRUE","1","1052","positive","item"
"1083",31,"NA","35","English","3","4","frog","TRUE","0","1196","negative","item"
"1084",31,"NA","35","English","4","6","banana","TRUE","1","2003","negative","alt"
"1085",31,"NA","35","English","5","3","flower","TRUE","1","1283","negative","alt"
"1086",31,"NA","35","English","6","7","bike","TRUE","0","1090","negative","item"
"1087",31,"NA","35","English","7","0","cow","TRUE","1","1173","negative","alt"
"1088",31,"NA","35","English","8","0","guitar","FALSE","1","1367","negative","item"
"1089",31,"NA","35","English","9","0","strawberry","TRUE","1","1187","positive","item"
"1090",31,"NA","35","English","10","6","apple","FALSE","1","1424","positive","alt"
"1091",31,"NA","35","English","11","5","lion","TRUE","1","1212","positive","item"
"1092",31,"NA","35","English","12","7","shoe","FALSE","0","3696","negative","alt"
"1093",31,"NA","35","English","13","1","horse","FALSE","1","9373","negative","item"
"1094",31,"NA","35","English","14","2","turtle","TRUE","1","1401","negative","alt"
"1095",31,"NA","35","English","15","6","purse","TRUE","1","4184","positive","item"
"1096",31,"NA","35","English","16","8","popsicle","FALSE","1","7252","negative","item"
"1097",31,"NA","35","English","17","6","phone","FALSE","1","1185","negative","item"
"1098",31,"NA","35","English","18","2","shirt","FALSE","1","1518","negative","item"
"1099",31,"NA","35","English","19","8","elephant","FALSE","1","1881","positive","alt"
"1100",31,"NA","35","English","20","1","crayon","TRUE","1","1106","positive","item"
"1101",31,"NA","35","English","21","0","fish","FALSE","1","1735","positive","alt"
"1102",31,"NA","35","English","22","4","dog","FALSE","1","899","positive","alt"
"1103",31,"NA","35","English","23","3","cake","TRUE","1","1089","positive","item"
"1104",31,"NA","35","English","24","5","cookie","TRUE","1","1320","negative","alt"
"1105",31,"NA","35","English","25","3","pencil","FALSE","1","1485","negative","item"
"1106",31,"NA","35","English","26","4","pig","TRUE","1","1204","positive","item"
"1107",31,"NA","35","English","27","4","bus","TRUE","1","2404","negative","alt"
"1108",31,"NA","35","English","28","1","tree","TRUE","1","1455","negative","alt"
"1109",31,"NA","35","English","29","2","cat","FALSE","1","1181","positive","alt"
"1110",31,"NA","35","English","30","7","donut","TRUE","1","1199","positive","item"
"1111",31,"NA","35","English","31","7","key","FALSE","1","1467","positive","alt"
"1112",31,"NA","35","English","32","5","duck","FALSE","1","2669","negative","item"
"1113",31,"NA","35","English","33","3","car","FALSE","1","1006","positive","alt"
"1114",31,"NA","35","English","34","1","carrot","FALSE","1","1019","positive","alt"
"1115",31,"NA","35","English","35","5","balloon","FALSE","1","1052","positive","alt"
"1116",31,"NA","35","English","36","2","bucket","TRUE","1","1212","positive","item"
"1117",32,"NA","45","English","1","1","apple","TRUE","1","2235","negative","alt"
"1118",32,"NA","45","English","2","6","shoe","TRUE","1","1966","negative","alt"
"1119",32,"NA","45","English","3","7","carrot","TRUE","1","1598","negative","alt"
"1120",32,"NA","45","English","4","2","donut","FALSE","1","1280","positive","alt"
"1121",32,"NA","45","English","5","7","bucket","TRUE","1","1911","positive","item"
"1122",32,"NA","45","English","6","4","fish","TRUE","1","1489","positive","item"
"1123",32,"NA","45","English","7","4","key","TRUE","1","1677","negative","alt"
"1124",32,"NA","45","English","8","6","pencil","FALSE","1","1129","negative","item"
"1125",32,"NA","45","English","9","0","cat","TRUE","1","1157","negative","alt"
"1126",32,"NA","45","English","10","5","cookie","TRUE","1","1122","positive","item"
"1127",32,"NA","45","English","11","8","mitten","FALSE","1","1032","negative","item"
"1128",32,"NA","45","English","12","2","popsicle","TRUE","1","1393","negative","alt"
"1129",32,"NA","45","English","13","5","elephant","TRUE","1","1286","negative","alt"
"1130",32,"NA","45","English","14","4","duck","FALSE","1","1379","positive","alt"
"1131",32,"NA","45","English","15","8","balloon","TRUE","1","1386","negative","alt"
"1132",32,"NA","45","English","16","1","turtle","FALSE","1","1419","negative","item"
"1133",32,"NA","45","English","17","2","dog","TRUE","1","914","positive","item"
"1134",32,"NA","45","English","18","7","car","FALSE","1","865","negative","item"
"1135",32,"NA","45","English","19","2","bike","FALSE","1","1112","negative","item"
"1136",32,"NA","45","English","20","3","cake","TRUE","1","1752","negative","alt"
"1137",32,"NA","45","English","21","1","crayon","FALSE","1","1318","positive","alt"
"1138",32,"NA","45","English","22","8","horse","TRUE","1","1880","positive","item"
"1139",32,"NA","45","English","23","7","pig","FALSE","1","1184","positive","alt"
"1140",32,"NA","45","English","24","0","frog","TRUE","1","915","positive","item"
"1141",32,"NA","45","English","25","5","tree","FALSE","1","1269","positive","alt"
"1142",32,"NA","45","English","26","0","banana","FALSE","1","1397","negative","item"
"1143",32,"NA","45","English","27","6","flower","TRUE","1","961","positive","item"
"1144",32,"NA","45","English","28","3","strawberry","FALSE","1","962","positive","alt"
"1145",32,"NA","45","English","29","1","bus","TRUE","1","716","positive","item"
"1146",32,"NA","45","English","30","8","lion","FALSE","1","1089","positive","alt"
"1147",32,"NA","45","English","31","6","cow","FALSE","1","1113","positive","alt"
"1148",32,"NA","45","English","32","5","guitar","FALSE","1","1200","negative","item"
"1149",32,"NA","45","English","33","3","phone","TRUE","1","856","positive","item"
"1150",32,"NA","45","English","34","3","fork","FALSE","1","926","negative","item"
"1151",32,"NA","45","English","35","0","purse","FALSE","1","854","positive","alt"
"1152",32,"NA","45","English","36","4","shirt","FALSE","1","747","negative","item"
"1153",33,"NA","55","English ","1","0","cake","FALSE","1","4658","negative","item"
"1154",33,"NA","55","English ","2","1","bucket","TRUE","1","17111","positive","item"
"1155",33,"NA","55","English ","3","5","bike","TRUE","1","1392","positive","item"
"1156",33,"NA","55","English ","4","6","purse","TRUE","1","2418","negative","alt"
"1157",33,"NA","55","English ","5","3","crayon","TRUE","1","1654","positive","item"
"1158",33,"NA","55","English ","6","5","donut","TRUE","1","1790","negative","alt"
"1159",33,"NA","55","English ","7","4","dog","TRUE","1","1442","negative","alt"
"1160",33,"NA","55","English ","8","1","frog","FALSE","1","2108","positive","alt"
"1161",33,"NA","55","English ","9","2","popsicle","FALSE","1","2070","positive","alt"
"1162",33,"NA","55","English ","10","5","pig","FALSE","1","1660","positive","alt"
"1163",33,"NA","55","English ","11","0","banana","TRUE","1","1695","negative","alt"
"1164",33,"NA","55","English ","12","4","turtle","FALSE","1","1923","positive","alt"
"1165",33,"NA","55","English ","13","7","car","FALSE","1","1789","positive","alt"
"1166",33,"NA","55","English ","14","8","balloon","FALSE","1","1495","positive","alt"
"1167",33,"NA","55","English ","15","7","shirt","FALSE","1","1952","negative","item"
"1168",33,"NA","55","English ","16","8","pencil","TRUE","1","1296","positive","item"
"1169",33,"NA","55","English ","17","6","cat","FALSE","1","1479","negative","item"
"1170",33,"NA","55","English ","18","2","cow","FALSE","1","1538","negative","item"
"1171",33,"NA","55","English ","19","7","tree","TRUE","1","1427","positive","item"
"1172",33,"NA","55","English ","20","6","fish","FALSE","1","1418","positive","alt"
"1173",33,"NA","55","English ","21","2","cookie","TRUE","1","1411","positive","item"
"1174",33,"NA","55","English ","22","0","carrot","FALSE","1","1498","positive","alt"
"1175",33,"NA","55","English ","23","8","apple","FALSE","1","2196","negative","item"
"1176",33,"NA","55","English ","24","3","duck","FALSE","1","1246","negative","item"
"1177",33,"NA","55","English ","25","3","strawberry","TRUE","1","2257","negative","alt"
"1178",33,"NA","55","English ","26","7","bus","TRUE","1","1396","negative","alt"
"1179",33,"NA","55","English ","27","8","elephant","TRUE","1","1296","negative","alt"
"1180",33,"NA","55","English ","28","4","lion","FALSE","1","1520","negative","item"
"1181",33,"NA","55","English ","29","5","fork","FALSE","1","1292","negative","item"
"1182",33,"NA","55","English ","30","1","key","TRUE","1","1650","negative","alt"
"1183",33,"NA","55","English ","31","4","mitten","TRUE","1","1453","positive","item"
"1184",33,"NA","55","English ","32","0","flower","TRUE","1","1268","positive","item"
"1185",33,"NA","55","English ","33","3","guitar","FALSE","1","1721","positive","alt"
"1186",33,"NA","55","English ","34","1","horse","FALSE","1","2172","negative","item"
"1187",33,"NA","55","English ","35","2","phone","TRUE","1","1957","negative","alt"
"1188",33,"NA","55","English ","36","6","shoe","TRUE","1","1146","positive","item"
"1189",34,"NA","45","english","1","3","bucket","FALSE","1","645","positive","alt"
"1190",34,"NA","45","english","2","3","lion","TRUE","1","1256","negative","alt"
"1191",34,"NA","45","english","3","6","apple","TRUE","1","1145","negative","alt"
"1192",34,"NA","45","english","4","7","pig","TRUE","1","831","positive","item"
"1193",34,"NA","45","english","5","8","frog","TRUE","1","697","positive","item"
"1194",34,"NA","45","english","6","5","cake","FALSE","1","936","negative","item"
"1195",34,"NA","45","english","7","7","guitar","FALSE","1","706","negative","item"
"1196",34,"NA","45","english","8","2","phone","TRUE","1","591","positive","item"
"1197",34,"NA","45","english","9","5","crayon","TRUE","1","585","positive","item"
"1198",34,"NA","45","english","10","0","mitten","FALSE","1","1063","positive","alt"
"1199",34,"NA","45","english","11","4","carrot","FALSE","1","785","negative","item"
"1200",34,"NA","45","english","12","3","bike","TRUE","1","536","positive","item"
"1201",34,"NA","45","english","13","2","dog","FALSE","0","1281","negative","alt"
"1202",34,"NA","45","english","14","4","donut","TRUE","1","704","positive","item"
"1203",34,"NA","45","english","15","1","fish","FALSE","1","682","negative","item"
"1204",34,"NA","45","english","16","7","flower","FALSE","1","848","positive","alt"
"1205",34,"NA","45","english","17","8","pencil","FALSE","1","1001","positive","alt"
"1206",34,"NA","45","english","18","3","shirt","FALSE","1","847","negative","item"
"1207",34,"NA","45","english","19","6","balloon","FALSE","1","546","negative","item"
"1208",34,"NA","45","english","20","1","shoe","FALSE","1","760","positive","alt"
"1209",34,"NA","45","english","21","5","key","FALSE","1","1105","positive","alt"
"1210",34,"NA","45","english","22","5","cookie","TRUE","1","951","negative","alt"
"1211",34,"NA","45","english","23","4","turtle","FALSE","1","721","positive","alt"
"1212",34,"NA","45","english","24","1","cat","TRUE","1","575","positive","item"
"1213",34,"NA","45","english","25","4","purse","TRUE","1","1154","negative","alt"
"1214",34,"NA","45","english","26","2","fork","FALSE","1","903","negative","item"
"1215",34,"NA","45","english","27","8","strawberry","FALSE","1","696","negative","item"
"1216",34,"NA","45","english","28","2","cow","FALSE","1","719","positive","alt"
"1217",34,"NA","45","english","29","0","popsicle","FALSE","1","714","negative","item"
"1218",34,"NA","45","english","30","6","elephant","TRUE","1","935","positive","item"
"1219",34,"NA","45","english","31","8","duck","TRUE","1","801","negative","alt"
"1220",34,"NA","45","english","32","6","car","FALSE","1","617","positive","alt"
"1221",34,"NA","45","english","33","1","bus","TRUE","1","890","negative","alt"
"1222",34,"NA","45","english","34","0","tree","TRUE","1","670","positive","item"
"1223",34,"NA","45","english","35","0","banana","TRUE","1","809","negative","alt"
"1224",34,"NA","45","english","36","7","horse","TRUE","1","1105","negative","alt"
"1225",35,"NA","35","english","1","8","bucket","TRUE","1","639","positive","item"
"1226",35,"NA","35","english","2","7","bus","FALSE","1","789","positive","alt"
"1227",35,"NA","35","english","3","6","tree","TRUE","1","1473","negative","alt"
"1228",35,"NA","35","english","4","8","balloon","FALSE","1","1021","negative","item"
