"","subid","age","language","trial.num","context.condition","item","response","correct","rt","text.condition","image.condition"
"1",279,"35","English",1,0,"kites",TRUE,1,765,"positive","item"
"2",279,"35","English",2,0,"rainboots",TRUE,1,818,"positive","item"
"3",279,"35","English",3,3,"donuts",FALSE,1,566,"negative","item"
"4",279,"35","English",4,1,"dogs",TRUE,1,951,"negative","nothing"
"5",279,"35","English",5,2,"crayons",TRUE,1,826,"positive","item"
"6",279,"35","English",6,0,"shovels",FALSE,1,697,"positive","nothing"
"7",279,"35","English",7,3,"fish",FALSE,1,602,"negative","item"
"8",279,"35","English",8,1,"ice cream cones",FALSE,1,1075,"negative","item"
"9",279,"35","English",9,3,"cookies",TRUE,1,602,"negative","nothing"
"10",279,"35","English",10,1,"cars",FALSE,1,541,"negative","item"
"11",279,"35","English",11,3,"presents",FALSE,1,721,"positive","nothing"
"12",279,"35","English",12,3,"guitars",FALSE,0,559,"negative","nothing"
"13",279,"35","English",13,2,"scissors",FALSE,0,767,"negative","nothing"
"14",279,"35","English",14,1,"apples",FALSE,1,836,"positive","nothing"
"15",279,"35","English",15,2,"plants",FALSE,1,790,"negative","item"
"16",279,"35","English",16,3,"bananas",TRUE,1,504,"positive","item"
"17",279,"35","English",17,1,"purses",FALSE,1,1086,"positive","nothing"
"18",279,"35","English",18,0,"daisies",FALSE,0,652,"negative","nothing"
"19",279,"35","English",19,0,"lollipops",FALSE,1,818,"positive","nothing"
"20",279,"35","English",20,2,"keys",TRUE,1,491,"positive","item"
"21",279,"35","English",21,0,"mittens",FALSE,1,874,"negative","item"
"22",279,"35","English",22,0,"pencils",FALSE,1,708,"negative","item"
"23",279,"35","English",23,2,"cakes",FALSE,1,502,"negative","item"
"24",279,"35","English",24,0,"balloons",TRUE,1,859,"negative","nothing"
"25",279,"35","English",25,2,"forks",FALSE,1,1002,"positive","nothing"
"26",279,"35","English",26,1,"phones",TRUE,1,605,"positive","item"
"27",279,"35","English",27,3,"bows",TRUE,1,806,"positive","item"
"28",279,"35","English",28,2,"carrots",FALSE,1,1570,"positive","nothing"
"29",279,"35","English",29,3,"umbrellas",FALSE,1,817,"positive","nothing"
"30",279,"35","English",30,1,"flowers",TRUE,1,604,"negative","nothing"
"31",279,"35","English",31,1,"cats",TRUE,1,615,"positive","item"
"32",279,"35","English",32,2,"buckets",TRUE,1,1021,"negative","nothing"
"33",483,"45","English",1,1,"carrots",FALSE,1,1374,"negative","item"
"34",483,"45","English",2,0,"rainboots",TRUE,1,849,"positive","item"
"35",483,"45","English",3,2,"mittens",TRUE,1,1618,"negative","nothing"
"36",483,"45","English",4,2,"phones",TRUE,1,1050,"positive","item"
"37",483,"45","English",5,3,"apples",TRUE,1,784,"positive","item"
"38",483,"45","English",6,3,"dogs",TRUE,1,782,"negative","nothing"
"39",483,"45","English",7,1,"keys",FALSE,1,1130,"negative","item"
"40",483,"45","English",8,3,"crayons",FALSE,1,1039,"positive","nothing"
"41",483,"45","English",9,0,"guitars",FALSE,1,1451,"positive","nothing"
"42",483,"45","English",10,3,"presents",FALSE,1,1113,"negative","item"
"43",483,"45","English",11,2,"bows",TRUE,1,1808,"positive","item"
"44",483,"45","English",12,2,"umbrellas",TRUE,1,1032,"negative","nothing"
"45",483,"45","English",13,0,"flowers",FALSE,1,1485,"positive","nothing"
"46",483,"45","English",14,2,"lollipops",FALSE,1,1078,"positive","nothing"
"47",483,"45","English",15,0,"cars",FALSE,0,2323,"negative","nothing"
"48",483,"45","English",16,2,"shovels",FALSE,1,1969,"negative","item"
"49",483,"45","English",17,1,"fish",TRUE,1,1345,"positive","item"
"50",483,"45","English",18,2,"forks",FALSE,1,1351,"negative","item"
"51",483,"45","English",19,0,"plants",TRUE,1,827,"positive","item"
"52",483,"45","English",20,0,"daisies",FALSE,1,1202,"negative","item"
"53",483,"45","English",21,0,"kites",FALSE,1,985,"negative","item"
"54",483,"45","English",22,1,"buckets",TRUE,1,1255,"positive","item"
"55",483,"45","English",23,2,"bananas",FALSE,1,1276,"positive","nothing"
"56",483,"45","English",24,1,"cookies",TRUE,1,1360,"negative","nothing"
"57",483,"45","English",25,3,"balloons",FALSE,1,1742,"negative","item"
"58",483,"45","English",26,3,"cakes",TRUE,1,1694,"negative","nothing"
"59",483,"45","English",27,0,"cats",TRUE,1,1756,"negative","nothing"
"60",483,"45","English",28,1,"scissors",FALSE,1,1294,"positive","nothing"
"61",483,"45","English",29,3,"pencils",FALSE,1,1802,"positive","nothing"
"62",483,"45","English",30,3,"purses",TRUE,1,1626,"positive","item"
"63",483,"45","English",31,1,"donuts",FALSE,1,1351,"positive","nothing"
"64",483,"45","English",32,1,"ice cream cones",TRUE,1,928,"negative","nothing"
"65",89,"66","English",1,3,"ice cream cones",TRUE,1,2573,"positive","item"
"66",89,"66","English",2,0,"carrots",FALSE,1,2326,"positive","nothing"
"67",89,"66","English",3,2,"pencils",TRUE,1,1314,"negative","nothing"
"68",89,"66","English",4,1,"flowers",FALSE,1,1831,"positive","nothing"
"69",89,"66","English",5,1,"crayons",TRUE,1,1530,"positive","item"
"70",89,"66","English",6,0,"bananas",TRUE,1,1452,"negative","nothing"
"71",89,"66","English",7,2,"bows",FALSE,1,1620,"negative","item"
"72",89,"66","English",8,1,"keys",FALSE,1,940,"negative","item"
"73",89,"66","English",9,2,"fish",FALSE,0,1042,"negative","nothing"
"74",89,"66","English",10,2,"rainboots",FALSE,1,1759,"positive","nothing"
"75",89,"66","English",11,0,"phones",TRUE,1,3892,"negative","nothing"
"76",89,"66","English",12,1,"plants",FALSE,1,2832,"positive","nothing"
"77",89,"66","English",13,0,"scissors",TRUE,1,1209,"positive","item"
"78",89,"66","English",14,2,"donuts",FALSE,1,1892,"negative","item"
"79",89,"66","English",15,3,"forks",FALSE,1,1383,"negative","item"
"80",89,"66","English",16,3,"presents",FALSE,1,1767,"negative","item"
"81",89,"66","English",17,3,"daisies",TRUE,1,971,"negative","nothing"
"82",89,"66","English",18,1,"cookies",FALSE,1,1171,"negative","item"
"83",89,"66","English",19,3,"kites",FALSE,1,1375,"positive","nothing"
"84",89,"66","English",20,2,"buckets",TRUE,1,1063,"positive","item"
"85",89,"66","English",21,1,"guitars",TRUE,1,1583,"negative","nothing"
"86",89,"66","English",22,3,"dogs",TRUE,1,2249,"negative","nothing"
"87",89,"66","English",23,1,"balloons",TRUE,1,1505,"negative","nothing"
"88",89,"66","English",24,2,"lollipops",TRUE,1,1074,"positive","item"
"89",89,"66","English",25,0,"apples",TRUE,1,1123,"positive","item"
"90",89,"66","English",26,0,"mittens",FALSE,1,3555,"positive","nothing"
"91",89,"66","English",27,0,"cars",FALSE,1,947,"negative","item"
"92",89,"66","English",28,3,"umbrellas",TRUE,1,3997,"positive","item"
"93",89,"66","English",29,1,"shovels",TRUE,1,903,"positive","item"
"94",89,"66","English",30,2,"cats",FALSE,1,1209,"positive","nothing"
"95",89,"66","English",31,0,"cakes",FALSE,1,1147,"negative","item"
"96",89,"66","English",32,3,"purses",FALSE,1,3063,"positive","nothing"
"97",117,"25","English",1,0,"buckets",TRUE,1,1381,"positive","item"
"98",117,"25","English",2,2,"shovels",TRUE,1,1043,"negative","nothing"
"99",117,"25","English",3,1,"crayons",FALSE,1,685,"positive","nothing"
"100",117,"25","English",4,0,"umbrellas",FALSE,1,829,"positive","nothing"
"101",117,"25","English",5,3,"lollipops",FALSE,1,617,"negative","item"
"102",117,"25","English",6,1,"keys",FALSE,1,609,"positive","nothing"
"103",117,"25","English",7,2,"cookies",TRUE,1,565,"positive","item"
"104",117,"25","English",8,0,"donuts",TRUE,1,1029,"negative","nothing"
"105",117,"25","English",9,2,"carrots",TRUE,1,610,"positive","item"
"106",117,"25","English",10,3,"purses",TRUE,1,568,"positive","item"
"107",117,"25","English",11,0,"kites",FALSE,1,539,"negative","item"
"108",117,"25","English",12,3,"dogs",FALSE,1,700,"positive","nothing"
"109",117,"25","English",13,2,"scissors",FALSE,1,1211,"positive","nothing"
"110",117,"25","English",14,2,"cars",FALSE,1,442,"positive","nothing"
"111",117,"25","English",15,3,"plants",TRUE,1,683,"negative","nothing"
"112",117,"25","English",16,2,"forks",FALSE,1,1235,"negative","item"
"113",117,"25","English",17,2,"apples",FALSE,1,557,"negative","item"
"114",117,"25","English",18,0,"flowers",TRUE,1,1593,"negative","nothing"
"115",117,"25","English",19,3,"balloons",FALSE,1,1555,"negative","item"
"116",117,"25","English",20,2,"pencils",TRUE,1,614,"negative","nothing"
"117",117,"25","English",21,3,"rainboots",FALSE,1,537,"positive","nothing"
"118",117,"25","English",22,1,"presents",TRUE,1,486,"positive","item"
"119",117,"25","English",23,3,"fish",TRUE,1,562,"positive","item"
"120",117,"25","English",24,1,"cats",TRUE,1,460,"negative","nothing"
"121",117,"25","English",25,1,"bows",TRUE,0,694,"negative","item"
"122",117,"25","English",26,0,"phones",TRUE,1,1297,"positive","item"
"123",117,"25","English",27,0,"guitars",FALSE,1,855,"negative","item"
"124",117,"25","English",28,0,"cakes",FALSE,1,1124,"positive","nothing"
"125",117,"25","English",29,1,"mittens",TRUE,1,812,"positive","item"
"126",117,"25","English",30,1,"bananas",TRUE,1,609,"negative","nothing"
"127",117,"25","English",31,1,"ice cream cones",FALSE,1,696,"negative","item"
"128",117,"25","English",32,3,"daisies",TRUE,1,1250,"negative","nothing"
"129",372,"35","English",1,2,"buckets",FALSE,1,834,"negative","item"
"130",372,"35","English",2,0,"fish",FALSE,1,968,"positive","nothing"
"131",372,"35","English",3,2,"keys",FALSE,1,767,"positive","nothing"
"132",372,"35","English",4,0,"donuts",FALSE,0,2251,"negative","nothing"
"133",372,"35","English",5,2,"mittens",TRUE,1,1251,"positive","item"
"134",372,"35","English",6,2,"rainboots",TRUE,1,1095,"negative","nothing"
"135",372,"35","English",7,2,"apples",TRUE,1,944,"negative","nothing"
"136",372,"35","English",8,2,"cakes",TRUE,1,689,"positive","item"
"137",372,"35","English",9,1,"forks",TRUE,1,1173,"positive","item"
"138",372,"35","English",10,1,"daisies",FALSE,1,820,"negative","item"
"139",372,"35","English",11,3,"plants",TRUE,1,892,"negative","nothing"
"140",372,"35","English",12,3,"kites",TRUE,1,767,"negative","nothing"
"141",372,"35","English",13,0,"bows",FALSE,1,1125,"positive","nothing"
"142",372,"35","English",14,0,"carrots",TRUE,1,580,"positive","item"
"143",372,"35","English",15,1,"cookies",FALSE,1,1110,"negative","item"
"144",372,"35","English",16,0,"pencils",TRUE,1,672,"positive","item"
"145",372,"35","English",17,2,"umbrellas",FALSE,1,845,"positive","nothing"
"146",372,"35","English",18,0,"ice cream cones",FALSE,1,1017,"negative","item"
"147",372,"35","English",19,0,"phones",TRUE,1,1361,"negative","nothing"
"148",372,"35","English",20,3,"scissors",FALSE,1,816,"positive","nothing"
"149",372,"35","English",21,1,"flowers",TRUE,1,845,"negative","nothing"
"150",372,"35","English",22,1,"purses",FALSE,1,640,"positive","nothing"
"151",372,"35","English",23,3,"cats",FALSE,1,985,"positive","nothing"
"152",372,"35","English",24,0,"presents",FALSE,1,985,"negative","item"
"153",372,"35","English",25,3,"shovels",FALSE,1,1219,"negative","item"
"154",372,"35","English",26,1,"guitars",TRUE,1,581,"positive","item"
"155",372,"35","English",27,1,"cars",FALSE,1,845,"positive","nothing"
"156",372,"35","English",28,2,"dogs",FALSE,1,719,"negative","item"
"157",372,"35","English",29,3,"balloons",TRUE,1,812,"positive","item"
"158",372,"35","English",30,3,"crayons",FALSE,1,787,"negative","item"
"159",372,"35","English",31,3,"lollipops",TRUE,1,704,"positive","item"
"160",372,"35","English",32,1,"bananas",TRUE,1,923,"negative","nothing"
"161",296,"35","English",1,1,"cats",TRUE,1,852,"positive","item"
"162",296,"35","English",2,3,"bows",TRUE,1,1320,"negative","nothing"
"163",296,"35","English",3,3,"fish",FALSE,1,1045,"negative","item"
"164",296,"35","English",4,2,"rainboots",TRUE,0,1127,"negative","item"
"165",296,"35","English",5,3,"carrots",FALSE,1,1315,"positive","nothing"
"166",296,"35","English",6,1,"guitars",FALSE,1,821,"positive","nothing"
"167",296,"35","English",7,2,"kites",TRUE,1,1456,"positive","item"
"168",296,"35","English",8,0,"phones",FALSE,1,4737,"negative","item"
"169",296,"35","English",9,3,"cars",TRUE,1,1246,"positive","item"
"170",296,"35","English",10,2,"flowers",TRUE,0,2070,"positive","nothing"
"171",296,"35","English",11,0,"plants",TRUE,1,806,"positive","item"
"172",296,"35","English",12,0,"ice cream cones",TRUE,0,3091,"positive","nothing"
"173",296,"35","English",13,3,"keys",TRUE,0,4369,"positive","nothing"
"174",296,"35","English",14,2,"forks",FALSE,0,16990,"negative","nothing"
"175",296,"35","English",15,1,"daisies",FALSE,1,1683,"positive","nothing"
"176",296,"35","English",16,2,"shovels",FALSE,0,2610,"negative","nothing"
"177",296,"35","English",17,3,"umbrellas",TRUE,1,594,"positive","item"
"178",296,"35","English",18,0,"apples",TRUE,1,10209,"negative","nothing"
"179",296,"35","English",19,2,"bananas",FALSE,1,1033,"negative","item"
"180",296,"35","English",20,1,"cookies",FALSE,0,3190,"negative","nothing"
"181",296,"35","English",21,1,"crayons",FALSE,1,3849,"negative","item"
"182",296,"35","English",22,0,"pencils",FALSE,1,899,"negative","item"
"183",296,"35","English",23,1,"lollipops",FALSE,1,909,"negative","item"
"184",296,"35","English",24,3,"purses",FALSE,0,1152,"negative","nothing"
"185",296,"35","English",25,2,"buckets",FALSE,1,1880,"positive","nothing"
"186",296,"35","English",26,1,"balloons",TRUE,1,1054,"negative","nothing"
"187",296,"35","English",27,3,"mittens",FALSE,1,1143,"negative","item"
"188",296,"35","English",28,0,"cakes",FALSE,0,1275,"negative","nothing"
"189",296,"35","English",29,0,"scissors",TRUE,1,1457,"positive","item"
"190",296,"35","English",30,2,"presents",TRUE,1,869,"positive","item"
"191",296,"35","English",31,1,"dogs",TRUE,1,2002,"positive","item"
"192",296,"35","English",32,0,"donuts",TRUE,0,896,"positive","nothing"
"193",80,"35","English",1,3,"purses",TRUE,1,1253,"negative","nothing"
"194",80,"35","English",2,2,"flowers",TRUE,1,1326,"negative","nothing"
"195",80,"35","English",3,1,"guitars",TRUE,1,917,"negative","nothing"
"196",80,"35","English",4,1,"shovels",TRUE,1,1580,"negative","nothing"
"197",80,"35","English",5,2,"buckets",TRUE,1,721,"negative","nothing"
"198",80,"35","English",6,1,"keys",FALSE,1,1739,"positive","nothing"
"199",80,"35","English",7,0,"cookies",FALSE,1,1549,"negative","item"
"200",80,"35","English",8,3,"balloons",TRUE,1,1325,"positive","item"
"201",80,"35","English",9,0,"kites",TRUE,1,1579,"positive","item"
"202",80,"35","English",10,2,"phones",TRUE,1,1838,"positive","item"
"203",80,"35","English",11,3,"donuts",FALSE,1,1072,"negative","item"
"204",80,"35","English",12,0,"ice cream cones",FALSE,1,2274,"negative","item"
"205",80,"35","English",13,3,"apples",FALSE,1,1757,"positive","nothing"
"206",80,"35","English",14,0,"mittens",TRUE,1,1275,"negative","nothing"
"207",80,"35","English",15,1,"forks",FALSE,1,1693,"negative","item"
"208",80,"35","English",16,1,"crayons",TRUE,1,1023,"positive","item"
"209",80,"35","English",17,3,"cats",FALSE,1,1141,"negative","item"
"210",80,"35","English",18,2,"dogs",TRUE,1,1115,"positive","item"
"211",80,"35","English",19,2,"carrots",FALSE,1,2473,"negative","item"
"212",80,"35","English",20,0,"pencils",FALSE,1,1096,"positive","nothing"
"213",80,"35","English",21,3,"cakes",TRUE,1,1672,"positive","item"
"214",80,"35","English",22,2,"daisies",FALSE,1,1004,"positive","nothing"
"215",80,"35","English",23,0,"plants",TRUE,1,1346,"negative","nothing"
"216",80,"35","English",24,1,"cars",FALSE,1,940,"positive","nothing"
"217",80,"35","English",25,1,"lollipops",FALSE,1,1113,"negative","item"
"218",80,"35","English",26,0,"umbrellas",TRUE,1,991,"positive","item"
"219",80,"35","English",27,1,"presents",TRUE,1,1285,"positive","item"
"220",80,"35","English",28,2,"fish",FALSE,1,1446,"positive","nothing"
"221",80,"35","English",29,0,"bows",FALSE,1,1423,"positive","nothing"
"222",80,"35","English",30,2,"bananas",FALSE,1,1240,"negative","item"
"223",80,"35","English",31,3,"scissors",TRUE,1,1751,"negative","nothing"
"224",80,"35","English",32,3,"rainboots",FALSE,1,1829,"positive","nothing"
"225",86,"35","english",1,3,"purses",FALSE,1,2224,"negative","item"
"226",86,"35","english",2,2,"shovels",FALSE,1,2039,"negative","item"
"227",86,"35","english",3,1,"crayons",FALSE,1,1170,"negative","item"
"228",86,"35","english",4,0,"phones",TRUE,1,1355,"negative","nothing"
"229",86,"35","english",5,2,"donuts",FALSE,1,1246,"negative","item"
"230",86,"35","english",6,0,"presents",TRUE,1,1341,"positive","item"
"231",86,"35","english",7,3,"fish",FALSE,0,1380,"negative","nothing"
"232",86,"35","english",8,2,"carrots",TRUE,1,1493,"negative","nothing"
"233",86,"35","english",9,3,"scissors",TRUE,1,1445,"positive","item"
"234",86,"35","english",10,2,"cars",FALSE,1,2168,"positive","nothing"
"235",86,"35","english",11,2,"bows",TRUE,1,1638,"negative","nothing"
"236",86,"35","english",12,1,"plants",TRUE,1,967,"positive","item"
"237",86,"35","english",13,3,"daisies",TRUE,1,1414,"positive","item"
"238",86,"35","english",14,1,"forks",TRUE,1,1580,"negative","nothing"
"239",86,"35","english",15,0,"apples",TRUE,1,2027,"negative","nothing"
"240",86,"35","english",16,1,"keys",TRUE,1,1080,"negative","nothing"
"241",86,"35","english",17,1,"rainboots",TRUE,0,1636,"positive","nothing"
"242",86,"35","english",18,0,"lollipops",TRUE,1,853,"positive","item"
"243",86,"35","english",19,3,"cakes",TRUE,1,787,"negative","nothing"
"244",86,"35","english",20,0,"pencils",TRUE,0,1446,"positive","nothing"
"245",86,"35","english",21,2,"ice cream cones",TRUE,1,1632,"positive","item"
"246",86,"35","english",22,3,"bananas",FALSE,1,908,"positive","nothing"
"247",86,"35","english",23,0,"dogs",FALSE,1,893,"negative","item"
"248",86,"35","english",24,1,"flowers",FALSE,1,1085,"negative","item"
"249",86,"35","english",25,1,"umbrellas",FALSE,1,1243,"positive","nothing"
"250",86,"35","english",26,0,"balloons",FALSE,1,1002,"negative","item"
"251",86,"35","english",27,2,"guitars",TRUE,1,1280,"positive","item"
"252",86,"35","english",28,0,"cats",FALSE,1,1278,"positive","nothing"
"253",86,"35","english",29,3,"cookies",FALSE,1,839,"positive","nothing"
"254",86,"35","english",30,1,"kites",FALSE,0,1199,"positive","item"
"255",86,"35","english",31,2,"buckets",FALSE,1,1190,"positive","nothing"
"256",86,"35","english",32,3,"mittens",FALSE,1,932,"negative","item"
"257",228,"25","english",1,3,"fish",FALSE,1,1642,"negative","item"
"258",228,"25","english",2,1,"ice cream cones",TRUE,1,1750,"positive","item"
"259",228,"25","english",3,3,"kites",TRUE,1,2362,"positive","item"
"260",228,"25","english",4,1,"apples",FALSE,1,1424,"negative","item"
"261",228,"25","english",5,0,"purses",TRUE,1,1297,"positive","item"
"262",228,"25","english",6,1,"phones",FALSE,1,2125,"positive","nothing"
"263",228,"25","english",7,1,"scissors",TRUE,1,1571,"negative","nothing"
"264",228,"25","english",8,1,"flowers",FALSE,1,1640,"positive","nothing"
"265",228,"25","english",9,3,"bows",TRUE,1,1625,"positive","item"
"266",228,"25","english",10,2,"umbrellas",FALSE,1,1360,"negative","item"
"267",228,"25","english",11,0,"crayons",FALSE,1,1470,"positive","nothing"
"268",228,"25","english",12,2,"cookies",TRUE,1,2375,"negative","nothing"
"269",228,"25","english",13,1,"plants",TRUE,1,1860,"negative","nothing"
"270",228,"25","english",14,0,"guitars",FALSE,1,1337,"negative","item"
"271",228,"25","english",15,2,"mittens",FALSE,1,1313,"negative","item"
"272",228,"25","english",16,3,"bananas",FALSE,1,2157,"positive","nothing"
"273",228,"25","english",17,2,"rainboots",TRUE,1,1376,"negative","nothing"
"274",228,"25","english",18,0,"buckets",TRUE,1,1188,"positive","item"
"275",228,"25","english",19,0,"lollipops",FALSE,1,1297,"negative","item"
"276",228,"25","english",20,1,"pencils",FALSE,1,1940,"negative","item"
"277",228,"25","english",21,3,"dogs",TRUE,1,5136,"negative","nothing"
"278",228,"25","english",22,1,"forks",TRUE,1,1374,"positive","item"
"279",228,"25","english",23,2,"cakes",FALSE,1,1440,"positive","nothing"
"280",228,"25","english",24,0,"cats",FALSE,1,1817,"positive","nothing"
"281",228,"25","english",25,2,"balloons",TRUE,1,1219,"positive","item"
"282",228,"25","english",26,3,"donuts",TRUE,1,1563,"negative","nothing"
"283",228,"25","english",27,0,"keys",TRUE,1,2048,"negative","nothing"
"284",228,"25","english",28,3,"daisies",FALSE,1,1844,"negative","item"
"285",228,"25","english",29,2,"presents",TRUE,1,1657,"positive","item"
"286",228,"25","english",30,2,"cars",FALSE,1,1689,"positive","nothing"
"287",228,"25","english",31,3,"carrots",FALSE,1,1815,"positive","nothing"
"288",228,"25","english",32,0,"shovels",TRUE,1,1548,"negative","nothing"
"289",120,"35","English",1,3,"flowers",TRUE,1,1349,"negative","nothing"
"290",120,"35","English",2,2,"kites",FALSE,1,1257,"negative","item"
"291",120,"35","English",3,2,"shovels",TRUE,1,860,"negative","nothing"
"292",120,"35","English",4,0,"phones",FALSE,1,793,"negative","item"
"293",120,"35","English",5,2,"pencils",FALSE,1,922,"positive","nothing"
"294",120,"35","English",6,3,"cars",TRUE,1,1030,"positive","item"
"295",120,"35","English",7,2,"keys",TRUE,1,798,"positive","item"
"296",120,"35","English",8,0,"cakes",TRUE,1,1095,"negative","nothing"
"297",120,"35","English",9,1,"cookies",TRUE,1,728,"positive","item"
"298",120,"35","English",10,0,"lollipops",FALSE,1,818,"negative","item"
"299",120,"35","English",11,3,"fish",FALSE,1,665,"negative","item"
"300",120,"35","English",12,2,"plants",FALSE,1,774,"positive","nothing"
"301",120,"35","English",13,0,"purses",TRUE,1,671,"positive","item"
"302",120,"35","English",14,2,"ice cream cones",TRUE,1,1297,"negative","nothing"
"303",120,"35","English",15,3,"rainboots",TRUE,0,1062,"negative","item"
"304",120,"35","English",16,1,"umbrellas",TRUE,1,1304,"negative","nothing"
"305",120,"35","English",17,3,"bows",TRUE,1,1138,"positive","item"
"306",120,"35","English",18,3,"apples",FALSE,1,900,"positive","nothing"
"307",120,"35","English",19,1,"mittens",FALSE,1,937,"positive","nothing"
"308",120,"35","English",20,3,"presents",TRUE,1,1113,"negative","nothing"
"309",120,"35","English",21,1,"balloons",FALSE,1,1218,"negative","item"
"310",120,"35","English",22,1,"buckets",TRUE,1,1014,"negative","nothing"
"311",120,"35","English",23,2,"cats",TRUE,1,1050,"positive","item"
"312",120,"35","English",24,1,"daisies",FALSE,1,1145,"negative","item"
"313",120,"35","English",25,0,"crayons",FALSE,1,1297,"positive","nothing"
"314",120,"35","English",26,1,"scissors",FALSE,1,875,"positive","nothing"
"315",120,"35","English",27,0,"guitars",FALSE,1,922,"positive","nothing"
"316",120,"35","English",28,3,"dogs",FALSE,1,1390,"positive","nothing"
"317",120,"35","English",29,0,"bananas",TRUE,1,1059,"negative","nothing"
"318",120,"35","English",30,1,"donuts",TRUE,1,854,"positive","item"
"319",120,"35","English",31,0,"forks",TRUE,1,1194,"positive","item"
"320",120,"35","English",32,2,"carrots",FALSE,1,1020,"negative","item"
"321",28,"35","english",1,0,"kites",FALSE,1,1179,"negative","item"
"322",28,"35","english",2,1,"shovels",FALSE,1,827,"positive","nothing"
"323",28,"35","english",3,2,"keys",TRUE,1,1180,"positive","item"
"324",28,"35","english",4,0,"buckets",FALSE,1,1234,"positive","nothing"
"325",28,"35","english",5,3,"pencils",FALSE,1,952,"negative","item"
"326",28,"35","english",6,3,"rainboots",TRUE,1,1127,"negative","nothing"
"327",28,"35","english",7,1,"apples",FALSE,1,826,"negative","item"
"328",28,"35","english",8,0,"donuts",FALSE,1,1162,"positive","nothing"
"329",28,"35","english",9,2,"cars",TRUE,1,599,"positive","item"
"330",28,"35","english",10,0,"forks",FALSE,0,1061,"negative","nothing"
"331",28,"35","english",11,2,"fish",FALSE,1,1365,"negative","item"
"332",28,"35","english",12,0,"guitars",TRUE,1,564,"positive","item"
"333",28,"35","english",13,0,"phones",TRUE,1,1128,"negative","nothing"
"334",28,"35","english",14,3,"plants",TRUE,1,965,"positive","item"
"335",28,"35","english",15,3,"scissors",FALSE,1,712,"positive","nothing"
"336",28,"35","english",16,1,"presents",TRUE,1,828,"positive","item"
"337",28,"35","english",17,2,"umbrellas",FALSE,1,852,"positive","nothing"
"338",28,"35","english",18,1,"carrots",TRUE,1,1027,"negative","nothing"
"339",28,"35","english",19,0,"lollipops",TRUE,1,839,"positive","item"
"340",28,"35","english",20,1,"balloons",TRUE,1,986,"positive","item"
"341",28,"35","english",21,1,"mittens",FALSE,1,789,"positive","nothing"
"342",28,"35","english",22,1,"bows",FALSE,1,1168,"negative","item"
"343",28,"35","english",23,2,"daisies",FALSE,1,916,"negative","item"
"344",28,"35","english",24,3,"crayons",TRUE,1,648,"positive","item"
"345",28,"35","english",25,2,"cookies",FALSE,1,951,"positive","nothing"
"346",28,"35","english",26,2,"ice cream cones",TRUE,1,887,"negative","nothing"
"347",28,"35","english",27,3,"dogs",FALSE,1,774,"negative","item"
"348",28,"35","english",28,3,"flowers",TRUE,1,1040,"negative","nothing"
"349",28,"35","english",29,2,"cats",TRUE,1,864,"negative","nothing"
"350",28,"35","english",30,1,"bananas",TRUE,1,725,"negative","nothing"
"351",28,"35","english",31,3,"cakes",FALSE,1,694,"positive","nothing"
"352",28,"35","english",32,0,"purses",FALSE,1,1381,"negative","item"
"353",309,"25","English",1,0,"bows",FALSE,1,2354,"positive","nothing"
"354",309,"25","English",2,0,"lollipops",TRUE,1,1274,"negative","nothing"
"355",309,"25","English",3,1,"mittens",TRUE,1,852,"negative","nothing"
"356",309,"25","English",4,2,"cakes",TRUE,1,623,"positive","item"
"357",309,"25","English",5,3,"ice cream cones",FALSE,1,742,"positive","nothing"
"358",309,"25","English",6,1,"carrots",FALSE,1,837,"positive","nothing"
"359",309,"25","English",7,0,"donuts",FALSE,1,532,"negative","item"
"360",309,"25","English",8,1,"flowers",FALSE,1,591,"positive","nothing"
"361",309,"25","English",9,1,"purses",TRUE,1,737,"negative","nothing"
"362",309,"25","English",10,2,"shovels",TRUE,0,530,"positive","nothing"
"363",309,"25","English",11,2,"plants",TRUE,1,795,"negative","nothing"
"364",309,"25","English",12,3,"presents",FALSE,1,1360,"positive","nothing"
"365",309,"25","English",13,1,"fish",FALSE,1,1369,"negative","item"
"366",309,"25","English",14,1,"umbrellas",TRUE,1,621,"positive","item"
"367",309,"25","English",15,2,"phones",TRUE,1,757,"negative","nothing"
"368",309,"25","English",16,3,"guitars",FALSE,1,1387,"negative","item"
"369",309,"25","English",17,0,"rainboots",FALSE,1,616,"negative","item"
"370",309,"25","English",18,2,"forks",FALSE,1,816,"positive","nothing"
"371",309,"25","English",19,2,"balloons",FALSE,1,683,"negative","item"
"372",309,"25","English",20,2,"cats",TRUE,1,495,"positive","item"
"373",309,"25","English",21,3,"dogs",TRUE,1,1018,"negative","nothing"
"374",309,"25","English",22,0,"buckets",TRUE,1,996,"negative","nothing"
"375",309,"25","English",23,1,"scissors",FALSE,1,1401,"negative","item"
"376",309,"25","English",24,0,"keys",FALSE,1,626,"positive","nothing"
"377",309,"25","English",25,3,"pencils",TRUE,1,714,"negative","nothing"
"378",309,"25","English",26,0,"daisies",TRUE,1,741,"positive","item"
"379",309,"25","English",27,3,"cookies",TRUE,1,441,"positive","item"
"380",309,"25","English",28,3,"cars",FALSE,1,735,"negative","item"
"381",309,"25","English",29,2,"kites",FALSE,1,630,"negative","item"
"382",309,"25","English",30,3,"crayons",TRUE,1,467,"positive","item"
"383",309,"25","English",31,1,"apples",TRUE,1,488,"positive","item"
"384",309,"25","English",32,0,"bananas",TRUE,1,514,"positive","item"
"385",320,"35","English",1,2,"scissors",TRUE,1,1173,"negative","nothing"
"386",320,"35","English",2,0,"kites",TRUE,1,1472,"positive","item"
"387",320,"35","English",3,3,"donuts",FALSE,1,1126,"positive","nothing"
"388",320,"35","English",4,1,"apples",FALSE,1,1531,"negative","item"
"389",320,"35","English",5,0,"forks",FALSE,1,754,"negative","item"
"390",320,"35","English",6,0,"cars",TRUE,1,907,"positive","item"
"391",320,"35","English",7,1,"mittens",TRUE,1,1136,"negative","nothing"
"392",320,"35","English",8,2,"crayons",FALSE,1,970,"positive","nothing"
"393",320,"35","English",9,1,"guitars",FALSE,1,687,"positive","nothing"
"394",320,"35","English",10,2,"bows",TRUE,1,1359,"negative","nothing"
"395",320,"35","English",11,2,"lollipops",TRUE,1,695,"positive","item"
"396",320,"35","English",12,1,"carrots",TRUE,1,860,"positive","item"
"397",320,"35","English",13,3,"cookies",FALSE,1,756,"positive","nothing"
"398",320,"35","English",14,3,"daisies",TRUE,1,1407,"negative","nothing"
"399",320,"35","English",15,3,"umbrellas",FALSE,1,767,"negative","item"
"400",320,"35","English",16,3,"dogs",TRUE,1,892,"positive","item"
"401",320,"35","English",17,0,"plants",TRUE,1,1017,"negative","nothing"
"402",320,"35","English",18,0,"shovels",FALSE,0,845,"negative","nothing"
"403",320,"35","English",19,3,"cakes",TRUE,1,851,"negative","nothing"
"404",320,"35","English",20,0,"pencils",FALSE,1,893,"positive","nothing"
"405",320,"35","English",21,1,"rainboots",TRUE,1,1227,"negative","nothing"
"406",320,"35","English",22,3,"fish",FALSE,1,970,"negative","item"
"407",320,"35","English",23,2,"purses",FALSE,1,798,"negative","item"
"408",320,"35","English",24,1,"cats",FALSE,1,897,"positive","nothing"
"409",320,"35","English",25,0,"buckets",FALSE,1,2274,"positive","nothing"
"410",320,"35","English",26,0,"presents",FALSE,1,1423,"negative","item"
"411",320,"35","English",27,2,"balloons",FALSE,1,1656,"negative","item"
"412",320,"35","English",28,3,"keys",TRUE,1,735,"positive","item"
"413",320,"35","English",29,2,"flowers",TRUE,1,1017,"positive","item"
"414",320,"35","English",30,1,"phones",TRUE,1,1251,"positive","item"
"415",320,"35","English",31,1,"ice cream cones",FALSE,1,1046,"negative","item"
"416",320,"35","English",32,2,"bananas",FALSE,1,1220,"positive","nothing"
"417",187,"45","English",1,3,"fish",TRUE,1,2791,"negative","nothing"
"418",187,"45","English",2,0,"guitars",FALSE,1,3764,"negative","item"
"419",187,"45","English",3,2,"crayons",FALSE,1,2397,"negative","item"
"420",187,"45","English",4,1,"cakes",FALSE,1,2486,"negative","item"
"421",187,"45","English",5,2,"keys",FALSE,0,1441,"negative","nothing"
"422",187,"45","English",6,0,"bows",TRUE,1,2241,"positive","item"
"423",187,"45","English",7,1,"kites",FALSE,1,2259,"positive","nothing"
"424",187,"45","English",8,3,"pencils",FALSE,1,2498,"positive","nothing"
"425",187,"45","English",9,3,"balloons",TRUE,1,2240,"negative","nothing"
"426",187,"45","English",10,2,"rainboots",FALSE,1,2459,"positive","nothing"
"427",187,"45","English",11,0,"flowers",TRUE,1,4212,"negative","nothing"
"428",187,"45","English",12,2,"donuts",TRUE,1,1686,"positive","item"
"429",187,"45","English",13,1,"cookies",TRUE,1,1449,"negative","nothing"
"430",187,"45","English",14,0,"dogs",FALSE,1,2733,"negative","item"
"431",187,"45","English",15,3,"phones",FALSE,1,1842,"negative","item"
"432",187,"45","English",16,2,"mittens",FALSE,1,2387,"positive","nothing"
"433",187,"45","English",17,3,"apples",TRUE,1,2039,"positive","item"
"434",187,"45","English",18,3,"shovels",FALSE,1,2811,"positive","nothing"
"435",187,"45","English",19,0,"cats",FALSE,1,2463,"positive","nothing"
"436",187,"45","English",20,1,"lollipops",TRUE,1,1934,"positive","item"
"437",187,"45","English",21,0,"daisies",TRUE,1,1371,"positive","item"
"438",187,"45","English",22,3,"plants",FALSE,1,3080,"negative","item"
"439",187,"45","English",23,2,"umbrellas",TRUE,1,2305,"positive","item"
"440",187,"45","English",24,1,"cars",FALSE,1,1614,"negative","item"
"441",187,"45","English",25,2,"carrots",TRUE,1,15684,"negative","nothing"
"442",187,"45","English",26,3,"ice cream cones",TRUE,1,1971,"positive","item"
"443",187,"45","English",27,0,"buckets",TRUE,1,2596,"negative","nothing"
"444",187,"45","English",28,1,"purses",TRUE,1,1005,"positive","item"
"445",187,"45","English",29,0,"scissors",FALSE,1,2487,"positive","nothing"
"446",187,"45","English",30,1,"forks",TRUE,1,2417,"negative","nothing"
"447",187,"45","English",31,2,"bananas",TRUE,0,1983,"negative","item"
"448",187,"45","English",32,1,"presents",FALSE,1,1560,"positive","nothing"
"449",323,"25","English",1,3,"keys",FALSE,0,472,"negative","nothing"
"450",323,"25","English",2,2,"purses",FALSE,1,673,"positive","nothing"
"451",323,"25","English",3,2,"cakes",TRUE,1,417,"positive","item"
"452",323,"25","English",4,0,"cars",TRUE,1,843,"negative","nothing"
"453",323,"25","English",5,1,"rainboots",TRUE,1,561,"positive","item"
"454",323,"25","English",6,0,"scissors",FALSE,1,794,"positive","nothing"
"455",323,"25","English",7,2,"ice cream cones",TRUE,0,667,"negative","item"
"456",323,"25","English",8,3,"crayons",FALSE,1,548,"negative","item"
"457",323,"25","English",9,3,"cookies",FALSE,1,723,"negative","item"
"458",323,"25","English",10,1,"umbrellas",FALSE,1,492,"positive","nothing"
"459",323,"25","English",11,1,"donuts",TRUE,1,451,"negative","nothing"
"460",323,"25","English",12,2,"presents",FALSE,1,436,"positive","nothing"
"461",323,"25","English",13,2,"phones",TRUE,1,523,"negative","nothing"
"462",323,"25","English",14,1,"lollipops",TRUE,1,571,"negative","nothing"
"463",323,"25","English",15,1,"bananas",FALSE,1,508,"negative","item"
"464",323,"25","English",16,3,"dogs",TRUE,1,540,"positive","item"
"465",323,"25","English",17,3,"fish",TRUE,0,491,"positive","nothing"
"466",323,"25","English",18,2,"buckets",TRUE,1,668,"negative","nothing"
"467",323,"25","English",19,3,"cats",TRUE,1,419,"positive","item"
"468",323,"25","English",20,1,"balloons",TRUE,1,530,"positive","item"
"469",323,"25","English",21,0,"flowers",TRUE,1,386,"positive","item"
"470",323,"25","English",22,1,"plants",FALSE,1,474,"negative","item"
"471",323,"25","English",23,0,"forks",TRUE,1,387,"positive","item"
"472",323,"25","English",24,0,"pencils",FALSE,1,483,"negative","item"
"473",323,"25","English",25,2,"guitars",TRUE,1,413,"positive","item"
"474",323,"25","English",26,2,"carrots",FALSE,1,491,"negative","item"
"475",323,"25","English",27,3,"daisies",TRUE,1,499,"negative","nothing"
"476",323,"25","English",28,0,"mittens",FALSE,1,437,"positive","nothing"
"477",323,"25","English",29,0,"shovels",TRUE,1,433,"negative","nothing"
"478",323,"25","English",30,3,"kites",TRUE,0,499,"positive","nothing"
"479",323,"25","English",31,0,"apples",FALSE,1,519,"negative","item"
"480",323,"25","English",32,1,"bows",FALSE,1,811,"positive","nothing"
"481",147,"45","English",1,2,"donuts",FALSE,1,844,"negative","item"
"482",147,"45","English",2,2,"cakes",TRUE,1,778,"negative","nothing"
"483",147,"45","English",3,3,"cats",FALSE,1,719,"negative","item"
"484",147,"45","English",4,3,"flowers",TRUE,1,1000,"positive","item"
"485",147,"45","English",5,1,"pencils",TRUE,1,614,"positive","item"
"486",147,"45","English",6,2,"fish",FALSE,1,813,"positive","nothing"
"487",147,"45","English",7,1,"phones",FALSE,1,1079,"positive","nothing"
"488",147,"45","English",8,3,"rainboots",FALSE,1,1531,"positive","nothing"
"489",147,"45","English",9,0,"crayons",TRUE,1,953,"negative","nothing"
"490",147,"45","English",10,3,"umbrellas",FALSE,0,688,"negative","nothing"
"491",147,"45","English",11,2,"daisies",TRUE,1,910,"positive","item"
"492",147,"45","English",12,3,"shovels",TRUE,1,843,"negative","nothing"
"493",147,"45","English",13,3,"cookies",TRUE,1,689,"positive","item"
"494",147,"45","English",14,2,"lollipops",FALSE,1,908,"positive","nothing"
"495",147,"45","English",15,3,"buckets",FALSE,1,874,"positive","nothing"
"496",147,"45","English",16,1,"dogs",TRUE,1,799,"positive","item"
"497",147,"45","English",17,3,"ice cream cones",FALSE,1,1079,"negative","item"
"498",147,"45","English",18,0,"balloons",TRUE,1,1734,"negative","nothing"
"499",147,"45","English",19,2,"cars",TRUE,1,876,"positive","item"
"500",147,"45","English",20,0,"apples",FALSE,1,689,"negative","item"
"501",147,"45","English",21,0,"guitars",TRUE,1,574,"positive","item"
"502",147,"45","English",22,0,"keys",TRUE,1,756,"positive","item"
"503",147,"45","English",23,0,"bows",FALSE,1,1060,"positive","nothing"
"504",147,"45","English",24,1,"mittens",TRUE,1,599,"negative","nothing"
"505",147,"45","English",25,1,"plants",FALSE,1,838,"negative","item"
"506",147,"45","English",26,0,"presents",FALSE,1,751,"negative","item"
"507",147,"45","English",27,2,"kites",TRUE,1,861,"negative","nothing"
"508",147,"45","English",28,0,"scissors",FALSE,1,722,"positive","nothing"
"509",147,"45","English",29,1,"carrots",TRUE,1,1845,"negative","nothing"
"510",147,"45","English",30,2,"bananas",FALSE,1,783,"negative","item"
"511",147,"45","English",31,1,"forks",FALSE,1,845,"positive","nothing"
"512",147,"45","English",32,1,"purses",FALSE,1,754,"negative","item"
"513",286,"45","english",1,3,"bananas",FALSE,1,2407,"negative","item"
"514",286,"45","english",2,1,"cars",TRUE,1,1658,"negative","nothing"
"515",286,"45","english",3,2,"phones",TRUE,1,1888,"positive","item"
"516",286,"45","english",4,1,"cakes",FALSE,1,1361,"positive","nothing"
"517",286,"45","english",5,0,"flowers",FALSE,1,6301,"positive","nothing"
"518",286,"45","english",6,0,"scissors",TRUE,1,2828,"negative","nothing"
"519",286,"45","english",7,3,"keys",FALSE,1,1172,"positive","nothing"
"520",286,"45","english",8,0,"lollipops",FALSE,1,1845,"negative","item"
"521",286,"45","english",9,3,"forks",FALSE,1,2205,"positive","nothing"
"522",286,"45","english",10,2,"pencils",TRUE,1,2000,"negative","nothing"
"523",286,"45","english",11,3,"shovels",TRUE,1,2627,"negative","nothing"
"524",286,"45","english",12,3,"bows",TRUE,1,2534,"positive","item"
"525",286,"45","english",13,0,"crayons",FALSE,0,2644,"negative","nothing"
"526",286,"45","english",14,0,"mittens",TRUE,1,2157,"positive","item"
"527",286,"45","english",15,0,"apples",TRUE,1,877,"positive","item"
"528",286,"45","english",16,1,"umbrellas",TRUE,1,1673,"negative","nothing"
"529",286,"45","english",17,2,"presents",TRUE,1,1095,"positive","item"
"530",286,"45","english",18,3,"daisies",TRUE,1,1046,"positive","item"
"531",286,"45","english",19,3,"guitars",FALSE,1,1798,"negative","item"
"532",286,"45","english",20,2,"balloons",TRUE,1,1792,"negative","nothing"
"533",286,"45","english",21,2,"rainboots",FALSE,1,2188,"positive","nothing"
"534",286,"45","english",22,0,"kites",FALSE,1,2064,"positive","nothing"
"535",286,"45","english",23,3,"buckets",TRUE,1,1290,"negative","nothing"
"536",286,"45","english",24,1,"cats",TRUE,1,1234,"positive","item"
"537",286,"45","english",25,1,"purses",FALSE,1,1469,"positive","nothing"
"538",286,"45","english",26,2,"dogs",FALSE,1,2157,"negative","item"
"539",286,"45","english",27,1,"fish",TRUE,1,845,"positive","item"
"540",286,"45","english",28,0,"ice cream cones",FALSE,1,2687,"negative","item"
"541",286,"45","english",29,2,"plants",FALSE,1,1157,"positive","nothing"
"542",286,"45","english",30,2,"cookies",FALSE,1,1861,"negative","item"
"543",286,"45","english",31,1,"donuts",FALSE,1,3860,"negative","item"
"544",286,"45","english",32,1,"carrots",FALSE,1,1493,"negative","item"
"545",291,"25","English",1,1,"umbrellas",FALSE,1,1629,"positive","nothing"
"546",291,"25","English",2,0,"donuts",TRUE,1,2131,"negative","nothing"
"547",291,"25","English",3,0,"cats",FALSE,1,933,"negative","item"
"548",291,"25","English",4,1,"presents",FALSE,0,758,"negative","nothing"
"549",291,"25","English",5,0,"apples",TRUE,1,959,"positive","item"
"550",291,"25","English",6,2,"cakes",FALSE,1,1001,"positive","nothing"
"551",291,"25","English",7,3,"cookies",FALSE,1,1240,"negative","item"
"552",291,"25","English",8,3,"crayons",TRUE,1,743,"positive","item"
"553",291,"25","English",9,1,"phones",TRUE,1,1366,"negative","nothing"
"554",291,"25","English",10,1,"bananas",FALSE,1,998,"positive","nothing"
"555",291,"25","English",11,3,"rainboots",TRUE,1,1411,"negative","nothing"
"556",291,"25","English",12,3,"dogs",TRUE,0,1241,"positive","nothing"
"557",291,"25","English",13,2,"daisies",TRUE,1,1396,"positive","item"
"558",291,"25","English",14,2,"plants",TRUE,1,1414,"negative","nothing"
"559",291,"25","English",15,2,"lollipops",TRUE,1,1143,"positive","item"
"560",291,"25","English",16,0,"mittens",TRUE,1,830,"positive","item"
"561",291,"25","English",17,1,"buckets",FALSE,1,4399,"negative","item"
"562",291,"25","English",18,2,"bows",TRUE,1,2642,"negative","nothing"
"563",291,"25","English",19,2,"scissors",FALSE,1,1306,"positive","nothing"
"564",291,"25","English",20,3,"balloons",TRUE,1,733,"positive","item"
"565",291,"25","English",21,0,"shovels",TRUE,1,1379,"negative","nothing"
"566",291,"25","English",22,0,"forks",FALSE,1,1393,"negative","item"
"567",291,"25","English",23,0,"ice cream cones",FALSE,1,2349,"positive","nothing"
"568",291,"25","English",24,3,"flowers",TRUE,0,1543,"negative","item"
"569",291,"25","English",25,1,"pencils",FALSE,1,1951,"negative","item"
"570",291,"25","English",26,0,"kites",FALSE,1,1334,"positive","nothing"
"571",291,"25","English",27,2,"purses",FALSE,1,2183,"negative","item"
"572",291,"25","English",28,3,"fish",TRUE,1,1710,"negative","nothing"
"573",291,"25","English",29,2,"cars",FALSE,1,1193,"negative","item"
"574",291,"25","English",30,1,"carrots",TRUE,1,1343,"positive","item"
"575",291,"25","English",31,1,"guitars",TRUE,1,1249,"positive","item"
"576",291,"25","English",32,3,"keys",FALSE,1,1199,"positive","nothing"
"577",170,"35","English",1,2,"keys",FALSE,1,1522,"negative","item"
"578",170,"35","English",2,3,"guitars",FALSE,1,1060,"negative","item"
"579",170,"35","English",3,1,"daisies",FALSE,1,965,"negative","item"
"580",170,"35","English",4,3,"presents",TRUE,1,916,"negative","nothing"
"581",170,"35","English",5,1,"purses",TRUE,1,1176,"negative","nothing"
"582",170,"35","English",6,3,"pencils",TRUE,1,1621,"negative","nothing"
"583",170,"35","English",7,0,"bananas",TRUE,1,725,"positive","item"
"584",170,"35","English",8,0,"phones",FALSE,1,1988,"negative","item"
"585",170,"35","English",9,3,"plants",FALSE,1,1234,"positive","nothing"
"586",170,"35","English",10,0,"flowers",TRUE,1,1794,"positive","item"
"587",170,"35","English",11,3,"bows",TRUE,1,1789,"positive","item"
"588",170,"35","English",12,1,"crayons",TRUE,1,1406,"negative","nothing"
"589",170,"35","English",13,3,"carrots",FALSE,1,1370,"positive","nothing"
"590",170,"35","English",14,2,"apples",TRUE,1,732,"positive","item"
"591",170,"35","English",15,2,"scissors",TRUE,1,1156,"negative","nothing"
"592",170,"35","English",16,2,"donuts",TRUE,1,1017,"positive","item"
"593",170,"35","English",17,1,"forks",FALSE,1,994,"negative","item"
"594",170,"35","English",18,2,"cookies",TRUE,1,1058,"negative","nothing"
"595",170,"35","English",19,1,"dogs",FALSE,1,714,"positive","nothing"
"596",170,"35","English",20,0,"rainboots",TRUE,1,1694,"negative","nothing"
"597",170,"35","English",21,3,"balloons",FALSE,1,1326,"negative","item"
"598",170,"35","English",22,2,"cakes",FALSE,1,678,"negative","item"
"599",170,"35","English",23,3,"umbrellas",TRUE,1,628,"positive","item"
"600",170,"35","English",24,0,"lollipops",TRUE,1,1265,"negative","nothing"
"601",170,"35","English",25,1,"buckets",TRUE,1,708,"positive","item"
"602",170,"35","English",26,2,"ice cream cones",FALSE,1,1892,"positive","nothing"
"603",170,"35","English",27,0,"cats",FALSE,1,1236,"positive","nothing"
"604",170,"35","English",28,0,"shovels",FALSE,1,672,"negative","item"
"605",170,"35","English",29,1,"kites",FALSE,1,704,"positive","nothing"
"606",170,"35","English",30,1,"mittens",TRUE,1,1041,"positive","item"
"607",170,"35","English",31,0,"fish",FALSE,1,993,"positive","nothing"
"608",170,"35","English",32,2,"cars",FALSE,1,939,"positive","nothing"
"609",502,"25","English",1,0,"purses",TRUE,1,1312,"positive","item"
"610",502,"25","English",2,1,"cookies",FALSE,1,2108,"positive","nothing"
"611",502,"25","English",3,2,"flowers",FALSE,1,1002,"positive","nothing"
"612",502,"25","English",4,0,"kites",FALSE,1,2105,"positive","nothing"
"613",502,"25","English",5,2,"cars",TRUE,1,1022,"positive","item"
"614",502,"25","English",6,1,"bananas",FALSE,1,1497,"positive","nothing"
"615",502,"25","English",7,2,"pencils",FALSE,1,661,"positive","nothing"
"616",502,"25","English",8,0,"shovels",FALSE,1,1028,"negative","item"
"617",502,"25","English",9,3,"crayons",TRUE,1,890,"negative","nothing"
"618",502,"25","English",10,2,"scissors",FALSE,1,744,"negative","item"
"619",502,"25","English",11,0,"bows",TRUE,1,880,"positive","item"
"620",502,"25","English",12,1,"forks",TRUE,1,823,"positive","item"
"621",502,"25","English",13,1,"umbrellas",TRUE,1,1485,"negative","nothing"
"622",502,"25","English",14,1,"carrots",FALSE,1,1056,"negative","item"
"623",502,"25","English",15,3,"mittens",FALSE,1,1491,"negative","item"
"624",502,"25","English",16,0,"lollipops",TRUE,1,1252,"negative","nothing"
"625",502,"25","English",17,2,"cakes",TRUE,1,1126,"negative","nothing"
"626",502,"25","English",18,2,"balloons",FALSE,1,1781,"negative","item"
"627",502,"25","English",19,3,"fish",TRUE,1,1070,"negative","nothing"
"628",502,"25","English",20,3,"buckets",FALSE,1,1558,"negative","item"
"629",502,"25","English",21,3,"daisies",TRUE,1,1441,"positive","item"
"630",502,"25","English",22,3,"keys",FALSE,1,816,"positive","nothing"
"631",502,"25","English",23,3,"dogs",TRUE,1,970,"positive","item"
"632",502,"25","English",24,3,"plants",FALSE,1,1751,"positive","nothing"
"633",502,"25","English",25,0,"donuts",FALSE,1,985,"negative","item"
"634",502,"25","English",26,1,"presents",TRUE,1,1209,"negative","nothing"
"635",502,"25","English",27,1,"rainboots",TRUE,1,1266,"positive","item"
"636",502,"25","English",28,0,"apples",FALSE,1,1553,"positive","nothing"
"637",502,"25","English",29,2,"guitars",TRUE,1,612,"positive","item"
"638",502,"25","English",30,0,"phones",TRUE,1,1627,"negative","nothing"
"639",502,"25","English",31,1,"ice cream cones",FALSE,1,1159,"negative","item"
"640",502,"25","English",32,2,"cats",TRUE,1,715,"negative","nothing"
"641",99,"55","English",1,3,"donuts",FALSE,1,1152,"positive","nothing"
"642",99,"55","English",2,1,"forks",FALSE,1,1152,"positive","nothing"
"643",99,"55","English",3,2,"daisies",FALSE,1,937,"positive","nothing"
"644",99,"55","English",4,1,"pencils",TRUE,1,1094,"negative","nothing"
"645",99,"55","English",5,1,"cookies",FALSE,0,935,"positive","item"
"646",99,"55","English",6,1,"cats",TRUE,1,1453,"negative","nothing"
"647",99,"55","English",7,1,"phones",FALSE,1,1149,"negative","item"
"648",99,"55","English",8,0,"kites",FALSE,1,1072,"negative","item"
"649",99,"55","English",9,3,"bananas",TRUE,1,1036,"negative","nothing"
"650",99,"55","English",10,2,"shovels",TRUE,1,1465,"negative","nothing"
"651",99,"55","English",11,3,"crayons",FALSE,1,946,"positive","nothing"
"652",99,"55","English",12,3,"plants",TRUE,1,984,"positive","item"
"653",99,"55","English",13,0,"purses",TRUE,1,1285,"negative","nothing"
"654",99,"55","English",14,0,"umbrellas",FALSE,1,1105,"positive","nothing"
"655",99,"55","English",15,3,"scissors",FALSE,1,1296,"negative","item"
"656",99,"55","English",16,2,"keys",TRUE,1,869,"positive","item"
"657",99,"55","English",17,0,"lollipops",TRUE,1,957,"positive","item"
"658",99,"55","English",18,2,"cars",TRUE,1,608,"positive","item"
"659",99,"55","English",19,0,"flowers",FALSE,1,1338,"positive","nothing"
"660",99,"55","English",20,2,"carrots",FALSE,1,1377,"negative","item"
"661",99,"55","English",21,3,"balloons",FALSE,1,1195,"negative","item"
"662",99,"55","English",22,2,"guitars",FALSE,1,1476,"positive","nothing"
"663",99,"55","English",23,0,"buckets",TRUE,1,1475,"positive","item"
"664",99,"55","English",24,1,"dogs",FALSE,1,1029,"positive","nothing"
"665",99,"55","English",25,3,"fish",TRUE,1,1479,"negative","nothing"
"666",99,"55","English",26,3,"apples",TRUE,1,2290,"positive","item"
"667",99,"55","English",27,1,"ice cream cones",FALSE,1,1387,"negative","item"
"668",99,"55","English",28,0,"mittens",FALSE,1,1081,"negative","item"
"669",99,"55","English",29,2,"cakes",TRUE,1,1339,"negative","nothing"
"670",99,"55","English",30,2,"rainboots",FALSE,1,1668,"negative","item"
"671",99,"55","English",31,0,"presents",TRUE,1,1317,"negative","nothing"
"672",99,"55","English",32,1,"bows",TRUE,1,1231,"positive","item"
"705",380,"45","english",1,1,"scissors",TRUE,1,1314,"negative","nothing"
"706",380,"45","english",2,1,"balloons",FALSE,1,954,"positive","nothing"
"707",380,"45","english",3,2,"dogs",FALSE,1,953,"positive","nothing"
"708",380,"45","english",4,0,"kites",FALSE,1,1319,"positive","nothing"
"709",380,"45","english",5,1,"fish",FALSE,1,1132,"negative","item"
"710",380,"45","english",6,2,"lollipops",FALSE,1,914,"negative","item"
"711",380,"45","english",7,3,"bows",FALSE,1,1206,"positive","nothing"
"712",380,"45","english",8,1,"guitars",TRUE,1,1190,"negative","nothing"
"713",380,"45","english",9,0,"purses",TRUE,1,1078,"negative","nothing"
"714",380,"45","english",10,2,"daisies",TRUE,1,1291,"negative","nothing"
"715",380,"45","english",11,0,"donuts",TRUE,1,1720,"negative","nothing"
"716",380,"45","english",12,0,"rainboots",TRUE,1,1183,"positive","item"
"717",380,"45","english",13,2,"bananas",TRUE,1,899,"positive","item"
"718",380,"45","english",14,1,"cookies",TRUE,1,1009,"positive","item"
"719",380,"45","english",15,2,"cars",TRUE,1,827,"negative","nothing"
"720",380,"45","english",16,0,"keys",FALSE,1,1068,"negative","item"
"721",380,"45","english",17,3,"shovels",TRUE,1,732,"negative","nothing"
"722",380,"45","english",18,3,"flowers",TRUE,1,1510,"positive","item"
"723",380,"45","english",19,0,"buckets",TRUE,1,629,"positive","item"
"724",380,"45","english",20,3,"forks",TRUE,1,610,"positive","item"
"725",380,"45","english",21,0,"ice cream cones",FALSE,1,1170,"positive","nothing"
"726",380,"45","english",22,3,"apples",FALSE,1,1437,"negative","item"
"727",380,"45","english",23,2,"umbrellas",TRUE,1,2770,"positive","item"
"728",380,"45","english",24,3,"cats",TRUE,1,883,"negative","nothing"
"729",380,"45","english",25,0,"carrots",FALSE,1,1018,"negative","item"
"730",380,"45","english",26,1,"crayons",FALSE,1,1108,"negative","item"
"731",380,"45","english",27,3,"plants",FALSE,1,826,"negative","item"
"732",380,"45","english",28,3,"cakes",FALSE,1,1030,"positive","nothing"
"733",380,"45","english",29,2,"pencils",FALSE,1,977,"positive","nothing"
"734",380,"45","english",30,1,"phones",FALSE,1,887,"positive","nothing"
"735",380,"45","english",31,1,"mittens",TRUE,1,822,"positive","item"
"736",380,"45","english",32,2,"presents",FALSE,1,989,"negative","item"
"737",501,"25","English",1,2,"balloons",FALSE,1,1104,"negative","item"
"738",501,"25","English",2,2,"rainboots",TRUE,1,1079,"positive","item"
"739",501,"25","English",3,1,"pencils",FALSE,1,822,"positive","nothing"
"740",501,"25","English",4,0,"cars",FALSE,1,1563,"positive","nothing"
"741",501,"25","English",5,1,"cats",TRUE,1,783,"positive","item"
"742",501,"25","English",6,0,"shovels",FALSE,1,985,"positive","nothing"
"743",501,"25","English",7,3,"fish",FALSE,1,856,"negative","item"
"744",501,"25","English",8,0,"bows",TRUE,1,609,"positive","item"
"745",501,"25","English",9,3,"forks",FALSE,1,908,"negative","item"
"746",501,"25","English",10,1,"lollipops",FALSE,1,774,"negative","item"
"747",501,"25","English",11,1,"cookies",TRUE,0,1302,"positive","nothing"
"748",501,"25","English",12,0,"crayons",TRUE,1,940,"positive","item"
"749",501,"25","English",13,0,"scissors",FALSE,1,1031,"negative","item"
"750",501,"25","English",14,2,"keys",TRUE,1,1297,"negative","nothing"
"751",501,"25","English",15,0,"daisies",TRUE,1,1272,"negative","nothing"
"752",501,"25","English",16,3,"dogs",TRUE,1,772,"positive","item"
"753",501,"25","English",17,2,"flowers",TRUE,0,772,"positive","nothing"
"754",501,"25","English",18,1,"donuts",TRUE,1,1003,"negative","nothing"
"755",501,"25","English",19,3,"phones",TRUE,1,1265,"negative","nothing"
"756",501,"25","English",20,2,"guitars",TRUE,1,517,"positive","item"
"757",501,"25","English",21,2,"cakes",TRUE,1,985,"negative","nothing"
"758",501,"25","English",22,1,"kites",TRUE,1,652,"positive","item"
"759",501,"25","English",23,2,"presents",FALSE,1,1304,"positive","nothing"
"760",501,"25","English",24,3,"umbrellas",FALSE,1,1377,"positive","nothing"
"761",501,"25","English",25,3,"purses",TRUE,1,1186,"negative","nothing"
"762",501,"25","English",26,0,"ice cream cones",TRUE,1,986,"negative","nothing"
"763",501,"25","English",27,3,"mittens",FALSE,1,798,"positive","nothing"
"764",501,"25","English",28,3,"apples",TRUE,1,559,"positive","item"
"765",501,"25","English",29,0,"bananas",FALSE,1,636,"negative","item"
"766",501,"25","English",30,1,"carrots",TRUE,1,1041,"negative","nothing"
"767",501,"25","English",31,1,"plants",FALSE,1,1917,"negative","item"
"768",501,"25","English",32,2,"buckets",FALSE,1,1493,"negative","item"
"769",451,"35","English",1,1,"scissors",TRUE,0,876,"positive","nothing"
"770",451,"35","English",2,0,"apples",TRUE,0,953,"negative","item"
"771",451,"35","English",3,3,"kites",TRUE,1,2564,"positive","item"
"772",451,"35","English",4,1,"plants",FALSE,1,1750,"negative","item"
"773",451,"35","English",5,2,"cars",TRUE,1,1516,"negative","nothing"
"774",451,"35","English",6,3,"shovels",TRUE,1,1370,"negative","nothing"
"775",451,"35","English",7,2,"lollipops",TRUE,1,1116,"negative","nothing"
"776",451,"35","English",8,1,"forks",TRUE,1,1642,"positive","item"
"777",451,"35","English",9,1,"guitars",TRUE,1,766,"positive","item"
"778",451,"35","English",10,3,"ice cream cones",FALSE,1,1640,"positive","nothing"
"779",451,"35","English",11,0,"flowers",TRUE,1,2440,"negative","nothing"
"780",451,"35","English",12,3,"cats",FALSE,1,1094,"positive","nothing"
"781",451,"35","English",13,3,"keys",FALSE,1,923,"negative","item"
"782",451,"35","English",14,3,"cookies",TRUE,1,1124,"negative","nothing"
"783",451,"35","English",15,2,"balloons",FALSE,1,831,"negative","item"
"784",451,"35","English",16,1,"presents",FALSE,1,1063,"negative","item"
"785",451,"35","English",17,1,"cakes",FALSE,1,1063,"positive","nothing"
"786",451,"35","English",18,3,"carrots",FALSE,1,1234,"negative","item"
"787",451,"35","English",19,1,"purses",TRUE,1,1876,"negative","nothing"
"788",451,"35","English",20,0,"rainboots",TRUE,1,1046,"positive","item"
"789",451,"35","English",21,2,"crayons",TRUE,1,1032,"positive","item"
"790",451,"35","English",22,0,"phones",TRUE,1,2454,"negative","nothing"
"791",451,"35","English",23,0,"buckets",FALSE,1,813,"negative","item"
"792",451,"35","English",24,2,"fish",FALSE,1,1047,"negative","item"
"793",451,"35","English",25,0,"bows",TRUE,1,845,"positive","item"
"794",451,"35","English",26,2,"donuts",FALSE,1,1124,"positive","nothing"
"795",451,"35","English",27,1,"umbrellas",TRUE,1,1268,"negative","nothing"
"796",451,"35","English",28,0,"mittens",FALSE,1,1303,"positive","nothing"
"797",451,"35","English",29,2,"daisies",TRUE,1,978,"positive","item"
"798",451,"35","English",30,2,"dogs",FALSE,1,1064,"positive","nothing"
"799",451,"35","English",31,3,"pencils",TRUE,1,600,"positive","item"
"800",451,"35","English",32,0,"bananas",FALSE,1,1109,"positive","nothing"
"801",343,"35","English",1,0,"crayons",FALSE,1,1048,"negative","item"
"802",343,"35","English",2,0,"mittens",FALSE,1,1110,"negative","item"
"803",343,"35","English",3,2,"carrots",FALSE,1,1254,"negative","item"
"804",343,"35","English",4,0,"plants",FALSE,1,1783,"positive","nothing"
"805",343,"35","English",5,1,"cats",TRUE,1,1304,"positive","item"
"806",343,"35","English",6,1,"ice cream cones",TRUE,1,2092,"negative","nothing"
"807",343,"35","English",7,2,"phones",TRUE,1,1799,"negative","nothing"
"808",343,"35","English",8,3,"pencils",TRUE,1,1381,"negative","nothing"
"809",343,"35","English",9,0,"apples",TRUE,1,1323,"positive","item"
"810",343,"35","English",10,2,"dogs",TRUE,1,1136,"negative","nothing"
"811",343,"35","English",11,3,"kites",TRUE,1,1097,"negative","nothing"
"812",343,"35","English",12,0,"keys",FALSE,1,1955,"positive","nothing"
"813",343,"35","English",13,1,"cakes",TRUE,1,1192,"positive","item"
"814",343,"35","English",14,3,"bows",TRUE,1,1316,"positive","item"
"815",343,"35","English",15,3,"forks",FALSE,1,1586,"positive","nothing"
"816",343,"35","English",16,2,"purses",FALSE,1,948,"negative","item"
"817",343,"35","English",17,1,"cars",FALSE,1,1535,"positive","nothing"
"818",343,"35","English",18,2,"cookies",FALSE,1,1422,"positive","nothing"
"819",343,"35","English",19,0,"rainboots",TRUE,1,1414,"negative","nothing"
"820",343,"35","English",20,3,"fish",FALSE,1,976,"negative","item"
"821",343,"35","English",21,0,"daisies",TRUE,1,1312,"negative","nothing"
"822",343,"35","English",22,1,"scissors",FALSE,1,1865,"positive","nothing"
"823",343,"35","English",23,2,"guitars",FALSE,1,1389,"positive","nothing"
"824",343,"35","English",24,3,"donuts",FALSE,1,1157,"positive","nothing"
"825",343,"35","English",25,1,"shovels",TRUE,1,1192,"negative","nothing"
"826",343,"35","English",26,3,"bananas",TRUE,1,1726,"positive","item"
"827",343,"35","English",27,1,"buckets",FALSE,1,1118,"negative","item"
"828",343,"35","English",28,2,"presents",TRUE,1,2652,"positive","item"
"829",343,"35","English",29,2,"balloons",TRUE,1,1283,"positive","item"
"830",343,"35","English",30,0,"flowers",TRUE,1,1483,"positive","item"
"831",343,"35","English",31,1,"umbrellas",FALSE,1,1922,"negative","item"
"832",343,"35","English",32,3,"lollipops",FALSE,1,1411,"negative","item"
"833",304,"25","English",1,2,"cookies",TRUE,1,899,"negative","nothing"
"834",304,"25","English",2,1,"flowers",TRUE,1,655,"positive","item"
"835",304,"25","English",3,2,"phones",TRUE,1,504,"positive","item"
"836",304,"25","English",4,0,"fish",FALSE,1,529,"positive","nothing"
"837",304,"25","English",5,2,"dogs",FALSE,1,453,"negative","item"
"838",304,"25","English",6,2,"scissors",TRUE,1,541,"positive","item"
"839",304,"25","English",7,2,"rainboots",TRUE,1,621,"negative","nothing"
"840",304,"25","English",8,0,"cats",TRUE,1,1416,"negative","nothing"
"841",304,"25","English",9,3,"shovels",TRUE,1,707,"positive","item"
"842",304,"25","English",10,0,"donuts",TRUE,1,466,"positive","item"
"843",304,"25","English",11,0,"mittens",FALSE,0,479,"negative","nothing"
"844",304,"25","English",12,3,"keys",TRUE,0,641,"positive","nothing"
"845",304,"25","English",13,2,"presents",FALSE,1,452,"positive","nothing"
"846",304,"25","English",14,1,"daisies",FALSE,1,545,"positive","nothing"
"847",304,"25","English",15,1,"crayons",FALSE,1,620,"negative","item"
"848",304,"25","English",16,3,"forks",TRUE,1,1414,"negative","nothing"
"849",304,"25","English",17,2,"ice cream cones",TRUE,0,708,"positive","nothing"
"850",304,"25","English",18,1,"kites",TRUE,1,924,"negative","nothing"
"851",304,"25","English",19,3,"cakes",FALSE,1,605,"negative","item"
"852",304,"25","English",20,3,"balloons",TRUE,1,598,"positive","item"
"853",304,"25","English",21,1,"apples",TRUE,1,511,"positive","item"
"854",304,"25","English",22,0,"umbrellas",FALSE,1,465,"negative","item"
"855",304,"25","English",23,2,"buckets",FALSE,1,1190,"negative","item"
"856",304,"25","English",24,1,"pencils",FALSE,1,398,"positive","nothing"
"857",304,"25","English",25,1,"cars",TRUE,1,818,"negative","nothing"
"858",304,"25","English",26,3,"lollipops",FALSE,1,396,"negative","item"
"859",304,"25","English",27,0,"carrots",FALSE,1,550,"negative","item"
"860",304,"25","English",28,3,"guitars",TRUE,1,1243,"negative","nothing"
"861",304,"25","English",29,1,"plants",FALSE,1,1111,"negative","item"
"862",304,"25","English",30,0,"purses",FALSE,1,907,"positive","nothing"
"863",304,"25","English",31,3,"bows",TRUE,0,621,"positive","nothing"
"864",304,"25","English",32,0,"bananas",TRUE,1,644,"positive","item"
"865",486,"55","ENGLISH",1,0,"bows",FALSE,1,2457,"negative","item"
"866",486,"55","ENGLISH",2,1,"buckets",TRUE,1,1574,"positive","item"
"867",486,"55","ENGLISH",3,0,"guitars",FALSE,1,1191,"negative","item"
"868",486,"55","ENGLISH",4,3,"cats",TRUE,1,2176,"positive","item"
"869",486,"55","ENGLISH",5,2,"fish",FALSE,1,1245,"positive","nothing"
"870",486,"55","ENGLISH",6,1,"phones",TRUE,0,902,"negative","item"
"871",486,"55","ENGLISH",7,0,"carrots",FALSE,1,7479,"positive","nothing"
"872",486,"55","ENGLISH",8,1,"pencils",TRUE,1,1188,"positive","item"
"873",486,"55","ENGLISH",9,0,"scissors",TRUE,1,2319,"negative","nothing"
"874",486,"55","ENGLISH",10,1,"cars",TRUE,1,1110,"negative","nothing"
"875",486,"55","ENGLISH",11,2,"rainboots",FALSE,1,1238,"negative","item"
"876",486,"55","ENGLISH",12,2,"daisies",TRUE,1,2518,"positive","item"
"877",486,"55","ENGLISH",13,3,"cakes",TRUE,1,1148,"positive","item"
"878",486,"55","ENGLISH",14,3,"plants",FALSE,1,1327,"positive","nothing"
"879",486,"55","ENGLISH",15,3,"balloons",FALSE,1,1104,"negative","item"
"880",486,"55","ENGLISH",16,2,"keys",FALSE,1,1079,"positive","nothing"
"881",486,"55","ENGLISH",17,1,"kites",TRUE,1,1455,"negative","nothing"
"882",486,"55","ENGLISH",18,1,"umbrellas",FALSE,1,1579,"positive","nothing"
"883",486,"55","ENGLISH",19,0,"shovels",FALSE,1,1684,"positive","nothing"
"884",486,"55","ENGLISH",20,3,"forks",TRUE,1,1641,"negative","nothing"
"885",486,"55","ENGLISH",21,3,"mittens",TRUE,1,1249,"negative","nothing"
"886",486,"55","ENGLISH",22,2,"presents",TRUE,1,1998,"negative","nothing"
"887",486,"55","ENGLISH",23,2,"flowers",TRUE,1,1135,"negative","nothing"
"888",486,"55","ENGLISH",24,2,"cookies",TRUE,1,1040,"positive","item"
"889",486,"55","ENGLISH",25,0,"purses",TRUE,1,1154,"positive","item"
"890",486,"55","ENGLISH",26,1,"lollipops",FALSE,1,873,"positive","nothing"
"891",486,"55","ENGLISH",27,1,"crayons",FALSE,1,1616,"negative","item"
"892",486,"55","ENGLISH",28,0,"bananas",TRUE,1,1572,"positive","item"
"893",486,"55","ENGLISH",29,3,"apples",FALSE,1,1562,"negative","item"
"894",486,"55","ENGLISH",30,0,"donuts",TRUE,1,1772,"negative","nothing"
"895",486,"55","ENGLISH",31,2,"dogs",TRUE,0,1514,"negative","item"
"896",486,"55","ENGLISH",32,3,"ice cream cones",FALSE,1,2013,"positive","nothing"
"897",204,"25","English",1,2,"keys",FALSE,1,767,"positive","nothing"
"898",204,"25","English",2,0,"presents",FALSE,1,597,"negative","item"
"899",204,"25","English",3,1,"daisies",FALSE,1,752,"negative","item"
"900",204,"25","English",4,3,"forks",TRUE,1,591,"positive","item"
"901",204,"25","English",5,2,"donuts",FALSE,1,520,"negative","item"
"902",204,"25","English",6,3,"bananas",FALSE,0,783,"negative","nothing"
"903",204,"25","English",7,1,"cars",FALSE,1,698,"positive","nothing"
"904",204,"25","English",8,1,"bows",TRUE,1,823,"negative","nothing"
"905",204,"25","English",9,2,"balloons",TRUE,1,1015,"negative","nothing"
"906",204,"25","English",10,0,"rainboots",FALSE,1,607,"negative","item"
"907",204,"25","English",11,3,"pencils",FALSE,1,690,"negative","item"
"908",204,"25","English",12,1,"umbrellas",TRUE,1,847,"negative","nothing"
"909",204,"25","English",13,0,"cakes",FALSE,1,909,"positive","nothing"
"910",204,"25","English",14,3,"shovels",FALSE,0,964,"negative","nothing"
"911",204,"25","English",15,2,"scissors",TRUE,0,727,"positive","nothing"
"912",204,"25","English",16,3,"flowers",FALSE,1,781,"positive","nothing"
"913",204,"25","English",17,1,"guitars",FALSE,1,517,"positive","nothing"
"914",204,"25","English",18,1,"mittens",FALSE,1,2278,"negative","item"
"915",204,"25","English",19,3,"dogs",FALSE,1,582,"negative","item"
"916",204,"25","English",20,3,"purses",FALSE,1,839,"positive","nothing"
"917",204,"25","English",21,2,"cats",TRUE,1,999,"negative","nothing"
"918",204,"25","English",22,3,"carrots",TRUE,1,751,"positive","item"
"919",204,"25","English",23,0,"phones",FALSE,0,674,"negative","nothing"
"920",204,"25","English",24,2,"ice cream cones",TRUE,1,696,"positive","item"
"921",204,"25","English",25,2,"fish",FALSE,1,802,"negative","item"
"922",204,"25","English",26,0,"kites",TRUE,1,863,"negative","nothing"
"923",204,"25","English",27,0,"plants",TRUE,1,679,"positive","item"
"924",204,"25","English",28,0,"cookies",TRUE,1,544,"positive","item"
"925",204,"25","English",29,1,"lollipops",TRUE,1,544,"positive","item"
"926",204,"25","English",30,0,"crayons",FALSE,1,940,"positive","nothing"
"927",204,"25","English",31,1,"apples",TRUE,1,526,"positive","item"
"928",204,"25","English",32,2,"buckets",TRUE,1,493,"positive","item"
"929",194,"25","English",1,2,"apples",TRUE,1,1449,"negative","nothing"
"930",194,"25","English",2,3,"donuts",TRUE,1,970,"negative","nothing"
"931",194,"25","English",3,3,"bows",FALSE,1,1891,"negative","item"
"932",194,"25","English",4,1,"shovels",FALSE,1,957,"positive","nothing"
"933",194,"25","English",5,1,"bananas",TRUE,1,724,"negative","nothing"
"934",194,"25","English",6,3,"cakes",FALSE,1,635,"positive","nothing"
"935",194,"25","English",7,1,"daisies",FALSE,1,707,"positive","nothing"
"936",194,"25","English",8,1,"balloons",TRUE,1,1003,"positive","item"
"937",194,"25","English",9,1,"buckets",TRUE,1,700,"negative","nothing"
"938",194,"25","English",10,1,"forks",FALSE,1,1236,"negative","item"
"939",194,"25","English",11,2,"cats",FALSE,0,1076,"negative","nothing"
"940",194,"25","English",12,0,"cars",FALSE,1,908,"negative","item"
"941",194,"25","English",13,0,"phones",TRUE,1,1086,"negative","nothing"
"942",194,"25","English",14,0,"fish",FALSE,1,1054,"positive","nothing"
"943",194,"25","English",15,2,"dogs",TRUE,1,1075,"positive","item"
"944",194,"25","English",16,2,"mittens",FALSE,1,957,"negative","item"
"945",194,"25","English",17,0,"presents",TRUE,1,755,"positive","item"
"946",194,"25","English",18,0,"rainboots",TRUE,1,1114,"positive","item"
"947",194,"25","English",19,2,"cookies",FALSE,1,1054,"positive","nothing"
"948",194,"25","English",20,2,"carrots",FALSE,1,1804,"negative","item"
"949",194,"25","English",21,3,"scissors",TRUE,1,803,"positive","item"
"950",194,"25","English",22,2,"ice cream cones",TRUE,1,859,"positive","item"
"951",194,"25","English",23,3,"purses",TRUE,1,859,"positive","item"
"952",194,"25","English",24,1,"pencils",TRUE,1,651,"positive","item"
"953",194,"25","English",25,3,"guitars",TRUE,0,683,"positive","nothing"
"954",194,"25","English",26,0,"keys",FALSE,1,650,"negative","item"
"955",194,"25","English",27,2,"crayons",FALSE,1,1186,"positive","nothing"
"956",194,"25","English",28,0,"kites",TRUE,1,1347,"negative","nothing"
"957",194,"25","English",29,0,"umbrellas",FALSE,1,851,"positive","nothing"
"958",194,"25","English",30,3,"flowers",FALSE,1,2201,"negative","item"
"959",194,"25","English",31,1,"plants",FALSE,1,1069,"negative","item"
"960",194,"25","English",32,3,"lollipops",TRUE,1,2037,"negative","nothing"
"961",263,"25","English",1,1,"umbrellas",TRUE,1,1406,"negative","nothing"
"962",263,"25","English",2,2,"presents",TRUE,1,1344,"negative","nothing"
"963",263,"25","English",3,1,"shovels",FALSE,1,1281,"positive","nothing"
"964",263,"25","English",4,1,"crayons",FALSE,1,2202,"negative","item"
"965",263,"25","English",5,2,"forks",TRUE,1,812,"positive","item"
"966",263,"25","English",6,0,"apples",TRUE,1,1063,"negative","nothing"
"967",263,"25","English",7,1,"ice cream cones",TRUE,1,1156,"positive","item"
"968",263,"25","English",8,0,"carrots",FALSE,1,906,"positive","nothing"
"969",263,"25","English",9,3,"purses",TRUE,1,1000,"negative","nothing"
"970",263,"25","English",10,3,"flowers",TRUE,1,1359,"positive","item"
"971",263,"25","English",11,1,"daisies",FALSE,1,983,"positive","nothing"
"972",263,"25","English",12,0,"kites",TRUE,1,1110,"negative","nothing"
"973",263,"25","English",13,2,"buckets",FALSE,1,1563,"negative","item"
"974",263,"25","English",14,3,"pencils",TRUE,0,1072,"negative","item"
"975",263,"25","English",15,1,"cars",FALSE,1,2750,"negative","item"
"976",263,"25","English",16,1,"bows",TRUE,1,938,"negative","nothing"
"977",263,"25","English",17,3,"guitars",TRUE,1,1094,"negative","nothing"
"978",263,"25","English",18,2,"rainboots",TRUE,1,687,"positive","item"
"979",263,"25","English",19,3,"donuts",FALSE,1,986,"positive","nothing"
"980",263,"25","English",20,0,"balloons",TRUE,1,998,"positive","item"
"981",263,"25","English",21,2,"dogs",FALSE,1,1220,"positive","nothing"
"982",263,"25","English",22,0,"scissors",FALSE,1,1032,"negative","item"
"983",263,"25","English",23,2,"lollipops",FALSE,1,986,"positive","nothing"
"984",263,"25","English",24,2,"fish",TRUE,1,1126,"negative","nothing"
"985",263,"25","English",25,2,"bananas",FALSE,1,984,"negative","item"
"986",263,"25","English",26,3,"cats",FALSE,1,1017,"negative","item"
"987",263,"25","English",27,0,"mittens",FALSE,1,906,"positive","nothing"
"988",263,"25","English",28,0,"plants",FALSE,1,782,"negative","item"
"989",263,"25","English",29,3,"keys",TRUE,1,952,"positive","item"
"990",263,"25","English",30,0,"cakes",TRUE,1,1005,"positive","item"
"991",263,"25","English",31,3,"cookies",FALSE,1,873,"positive","nothing"
"992",263,"25","English",32,1,"phones",TRUE,1,733,"positive","item"
"993",190,"55","English",1,0,"presents",FALSE,1,922,"negative","item"
"994",190,"55","English",2,0,"donuts",FALSE,0,3193,"negative","nothing"
"995",190,"55","English",3,2,"pencils",FALSE,1,1525,"negative","item"
"996",190,"55","English",4,2,"cats",FALSE,1,1167,"positive","nothing"
"997",190,"55","English",5,3,"bananas",TRUE,1,1222,"negative","nothing"
"998",190,"55","English",6,0,"lollipops",FALSE,1,845,"positive","nothing"
"999",190,"55","English",7,0,"cars",FALSE,1,1261,"positive","nothing"
"1000",190,"55","English",8,3,"phones",TRUE,1,803,"positive","item"
"1001",190,"55","English",9,3,"scissors",TRUE,1,973,"negative","nothing"
"1002",190,"55","English",10,0,"keys",TRUE,1,854,"positive","item"
"1003",190,"55","English",11,3,"daisies",FALSE,1,1444,"positive","nothing"
"1004",190,"55","English",12,0,"fish",TRUE,1,869,"positive","item"
"1005",190,"55","English",13,0,"carrots",FALSE,1,1501,"negative","item"
"1006",190,"55","English",14,1,"rainboots",FALSE,1,972,"positive","nothing"
"1007",190,"55","English",15,1,"bows",FALSE,1,924,"negative","item"
"1008",190,"55","English",16,2,"cakes",TRUE,1,1085,"negative","nothing"
"1009",190,"55","English",17,1,"buckets",TRUE,1,1165,"negative","nothing"
"1010",190,"55","English",18,2,"ice cream cones",FALSE,1,1612,"positive","nothing"
"1011",190,"55","English",19,1,"guitars",TRUE,1,630,"positive","item"
"1012",190,"55","English",20,2,"crayons",TRUE,1,1293,"negative","nothing"
"1013",190,"55","English",21,1,"plants",FALSE,1,1077,"positive","nothing"
"1014",190,"55","English",22,2,"apples",TRUE,1,1611,"positive","item"
"1015",190,"55","English",23,1,"flowers",TRUE,1,1570,"positive","item"
"1016",190,"55","English",24,3,"balloons",FALSE,1,1037,"positive","nothing"
"1017",190,"55","English",25,3,"dogs",FALSE,1,772,"negative","item"
"1018",190,"55","English",26,0,"forks",TRUE,1,1087,"negative","nothing"
"1019",190,"55","English",27,3,"cookies",TRUE,1,723,"positive","item"
"1020",190,"55","English",28,3,"kites",FALSE,1,1403,"negative","item"
"1021",190,"55","English",29,1,"purses",TRUE,1,1062,"negative","nothing"
"1022",190,"55","English",30,1,"shovels",FALSE,1,939,"negative","item"
"1023",190,"55","English",31,2,"umbrellas",TRUE,1,1115,"positive","item"
"1024",190,"55","English",32,2,"mittens",FALSE,1,958,"negative","item"
"1025",179,"55","English",1,1,"dogs",TRUE,1,1281,"positive","item"
"1026",179,"55","English",2,2,"cats",TRUE,1,952,"positive","item"
"1027",179,"55","English",3,3,"umbrellas",FALSE,1,1896,"negative","item"
"1028",179,"55","English",4,2,"daisies",FALSE,1,1186,"negative","item"
"1029",179,"55","English",5,1,"balloons",TRUE,1,1293,"negative","nothing"
"1030",179,"55","English",6,0,"presents",FALSE,1,1576,"positive","nothing"
"1031",179,"55","English",7,2,"shovels",TRUE,1,934,"positive","item"
"1032",179,"55","English",8,3,"keys",FALSE,1,935,"positive","nothing"
"1033",179,"55","English",9,2,"buckets",FALSE,1,1348,"positive","nothing"
"1034",179,"55","English",10,3,"mittens",TRUE,1,1123,"positive","item"
"1035",179,"55","English",11,0,"apples",TRUE,1,690,"positive","item"
"1036",179,"55","English",12,0,"bows",FALSE,1,1508,"positive","nothing"
"1037",179,"55","English",13,3,"fish",FALSE,1,1663,"negative","item"
"1038",179,"55","English",14,3,"pencils",TRUE,1,1802,"negative","nothing"
"1039",179,"55","English",15,1,"ice cream cones",FALSE,1,1662,"positive","nothing"
"1040",179,"55","English",16,2,"cakes",FALSE,1,1486,"positive","nothing"
"1041",179,"55","English",17,1,"lollipops",FALSE,1,1451,"negative","item"
"1042",179,"55","English",18,2,"donuts",TRUE,1,2308,"negative","nothing"
"1043",179,"55","English",19,1,"guitars",FALSE,1,1396,"negative","item"
"1044",179,"55","English",20,3,"purses",TRUE,1,2169,"positive","item"
"1045",179,"55","English",21,0,"flowers",FALSE,1,1092,"negative","item"
"1046",179,"55","English",22,0,"kites",TRUE,1,1536,"negative","nothing"
"1047",179,"55","English",23,0,"plants",FALSE,1,1094,"negative","item"
"1048",179,"55","English",24,0,"cookies",TRUE,1,1210,"negative","nothing"
"1049",179,"55","English",25,0,"bananas",TRUE,1,916,"positive","item"
"1050",179,"55","English",26,3,"crayons",TRUE,1,1588,"negative","nothing"
"1051",179,"55","English",27,2,"scissors",TRUE,1,1505,"negative","nothing"
"1052",179,"55","English",28,3,"cars",FALSE,1,1448,"positive","nothing"
"1053",179,"55","English",29,1,"carrots",TRUE,1,1081,"positive","item"
"1054",179,"55","English",30,1,"rainboots",FALSE,1,1025,"positive","nothing"
"1055",179,"55","English",31,2,"forks",FALSE,1,1266,"negative","item"
"1056",179,"55","English",32,1,"phones",TRUE,1,1851,"negative","nothing"
"1057",119,"45","english",1,0,"buckets",FALSE,1,1099,"negative","item"
"1058",119,"45","english",2,2,"apples",TRUE,0,590,"positive","nothing"
"1059",119,"45","english",3,3,"presents",TRUE,1,525,"positive","item"
"1060",119,"45","english",4,3,"bananas",FALSE,0,541,"negative","nothing"
"1061",119,"45","english",5,3,"balloons",FALSE,1,1046,"positive","nothing"
"1062",119,"45","english",6,0,"guitars",TRUE,0,2289,"positive","nothing"
"1063",119,"45","english",7,2,"cats",TRUE,1,680,"positive","item"
"1064",119,"45","english",8,3,"plants",TRUE,1,566,"positive","item"
"1065",119,"45","english",9,0,"forks",FALSE,1,824,"negative","item"
"1066",119,"45","english",10,1,"ice cream cones",FALSE,1,1179,"positive","nothing"
"1067",119,"45","english",11,1,"mittens",FALSE,1,697,"positive","nothing"
"1068",119,"45","english",12,1,"cookies",FALSE,1,1075,"negative","item"
"1069",119,"45","english",13,2,"purses",FALSE,1,877,"negative","item"
"1070",119,"45","english",14,1,"umbrellas",FALSE,1,891,"negative","item"
"1071",119,"45","english",15,0,"crayons",FALSE,1,894,"positive","nothing"
"1072",119,"45","english",16,1,"shovels",TRUE,1,837,"positive","item"
"1073",119,"45","english",17,2,"cars",FALSE,1,748,"negative","item"
"1074",119,"45","english",18,0,"carrots",TRUE,1,660,"positive","item"
"1075",119,"45","english",19,1,"lollipops",TRUE,1,566,"positive","item"
"1076",119,"45","english",20,0,"kites",TRUE,1,1521,"negative","nothing"
"1077",119,"45","english",21,2,"daisies",FALSE,1,611,"positive","nothing"
"1078",119,"45","english",22,1,"rainboots",TRUE,1,999,"negative","nothing"
"1079",119,"45","english",23,3,"cakes",FALSE,1,652,"positive","nothing"
"1080",119,"45","english",24,2,"scissors",TRUE,1,848,"negative","nothing"
"1081",119,"45","english",25,2,"keys",TRUE,1,767,"negative","nothing"
"1082",119,"45","english",26,0,"bows",TRUE,1,1420,"positive","item"
"1083",119,"45","english",27,2,"donuts",TRUE,1,633,"positive","item"
"1084",119,"45","english",28,3,"fish",FALSE,1,725,"negative","item"
"1085",119,"45","english",29,1,"flowers",TRUE,1,604,"negative","nothing"
"1086",119,"45","english",30,3,"phones",TRUE,1,716,"negative","nothing"
"1087",119,"45","english",31,3,"pencils",FALSE,1,569,"negative","item"
"1088",119,"45","english",32,0,"dogs",FALSE,0,1055,"negative","nothing"
"1089",419,"45","english",1,1,"flowers",TRUE,0,1032,"positive","nothing"
"1090",419,"45","english",2,0,"apples",FALSE,1,1156,"negative","item"
"1091",419,"45","english",3,2,"balloons",TRUE,1,1111,"positive","item"
"1092",419,"45","english",4,0,"umbrellas",TRUE,1,1673,"negative","nothing"
"1093",419,"45","english",5,1,"lollipops",TRUE,1,1407,"negative","nothing"
"1094",419,"45","english",6,2,"shovels",TRUE,1,1391,"negative","nothing"
"1095",419,"45","english",7,3,"rainboots",FALSE,0,1657,"positive","item"
"1096",419,"45","english",8,0,"plants",FALSE,1,1438,"positive","nothing"
"1097",419,"45","english",9,3,"daisies",TRUE,1,1110,"positive","item"
"1098",419,"45","english",10,2,"phones",FALSE,1,1358,"positive","nothing"
"1099",419,"45","english",11,1,"dogs",FALSE,1,1000,"negative","item"
"1100",419,"45","english",12,1,"scissors",TRUE,1,1532,"negative","nothing"
"1101",419,"45","english",13,0,"bananas",TRUE,1,1078,"positive","item"
"1102",419,"45","english",14,1,"keys",FALSE,1,953,"negative","item"
"1103",419,"45","english",15,0,"cookies",TRUE,1,1452,"negative","nothing"
"1104",419,"45","english",16,3,"bows",FALSE,1,830,"negative","item"
"1105",419,"45","english",17,2,"kites",FALSE,1,954,"negative","item"
"1106",419,"45","english",18,1,"cars",TRUE,1,954,"positive","item"
"1107",419,"45","english",19,2,"donuts",FALSE,1,1157,"positive","nothing"
"1108",419,"45","english",20,3,"pencils",FALSE,1,1001,"positive","nothing"
"1109",419,"45","english",21,3,"carrots",TRUE,1,625,"negative","nothing"
"1110",419,"45","english",22,0,"purses",FALSE,1,703,"negative","item"
"1111",419,"45","english",23,3,"fish",FALSE,1,596,"negative","item"
"1112",419,"45","english",24,3,"cats",FALSE,0,768,"negative","nothing"
"1113",419,"45","english",25,3,"buckets",FALSE,1,1093,"positive","nothing"
"1114",419,"45","english",26,2,"mittens",TRUE,1,970,"positive","item"
"1115",419,"45","english",27,2,"forks",TRUE,1,1250,"negative","nothing"
"1116",419,"45","english",28,2,"crayons",FALSE,1,922,"negative","item"
"1117",419,"45","english",29,0,"ice cream cones",TRUE,1,876,"positive","item"
"1118",419,"45","english",30,1,"cakes",FALSE,1,769,"positive","nothing"
"1119",419,"45","english",31,0,"presents",FALSE,1,1080,"positive","nothing"
"1120",419,"45","english",32,1,"guitars",TRUE,1,783,"positive","item"
"1153",360,"45","english",1,1,"buckets",FALSE,1,967,"positive","nothing"
"1154",360,"45","english",2,0,"mittens",FALSE,1,1165,"negative","item"
"1155",360,"45","english",3,3,"guitars",FALSE,1,925,"positive","nothing"
"1156",360,"45","english",4,3,"bananas",FALSE,1,818,"positive","nothing"
"1157",360,"45","english",5,2,"donuts",TRUE,1,1039,"positive","item"
"1158",360,"45","english",6,2,"umbrellas",TRUE,1,2394,"negative","nothing"
"1159",360,"45","english",7,3,"kites",TRUE,1,502,"positive","item"
"1160",360,"45","english",8,2,"purses",FALSE,1,795,"negative","item"
"1161",360,"45","english",9,1,"lollipops",FALSE,1,1239,"negative","item"
"1162",360,"45","english",10,1,"cats",TRUE,0,833,"positive","nothing"
"1163",360,"45","english",11,1,"ice cream cones",TRUE,1,874,"positive","item"
"1164",360,"45","english",12,0,"forks",TRUE,1,1109,"negative","nothing"
"1165",360,"45","english",13,2,"daisies",FALSE,1,1087,"negative","item"
"1166",360,"45","english",14,2,"plants",TRUE,1,1642,"negative","nothing"
"1167",360,"45","english",15,0,"pencils",FALSE,1,1201,"positive","nothing"
"1168",360,"45","english",16,1,"bows",FALSE,1,1536,"negative","item"
"1169",360,"45","english",17,0,"shovels",FALSE,1,1227,"positive","nothing"
"1170",360,"45","english",18,3,"crayons",TRUE,1,1541,"negative","nothing"
"1171",360,"45","english",19,1,"fish",TRUE,1,908,"negative","nothing"
"1172",360,"45","english",20,2,"cakes",TRUE,1,809,"positive","item"
"1173",360,"45","english",21,1,"flowers",TRUE,1,761,"positive","item"
"1174",360,"45","english",22,0,"keys",TRUE,1,1011,"negative","nothing"
"1175",360,"45","english",23,3,"apples",FALSE,1,1157,"negative","item"
"1176",360,"45","english",24,3,"cars",FALSE,1,962,"negative","item"
"1177",360,"45","english",25,2,"presents",FALSE,1,1374,"positive","nothing"
"1178",360,"45","english",26,1,"scissors",TRUE,1,1074,"negative","nothing"
"1179",360,"45","english",27,0,"cookies",TRUE,1,1124,"positive","item"
"1180",360,"45","english",28,2,"dogs",FALSE,1,1235,"positive","nothing"
"1181",360,"45","english",29,3,"phones",TRUE,1,1208,"negative","nothing"
"1182",360,"45","english",30,3,"balloons",TRUE,1,1039,"positive","item"
"1183",360,"45","english",31,0,"rainboots",FALSE,1,1207,"negative","item"
"1184",360,"45","english",32,0,"carrots",TRUE,1,1031,"positive","item"
"1185",132,"35","english",1,1,"carrots",FALSE,1,1838,"positive","nothing"
"1186",132,"35","english",2,0,"cakes",FALSE,1,1580,"positive","nothing"
"1187",132,"35","english",3,0,"purses",TRUE,1,1039,"negative","nothing"
"1188",132,"35","english",4,2,"cookies",TRUE,1,1047,"negative","nothing"
"1189",132,"35","english",5,3,"crayons",TRUE,1,1111,"negative","nothing"
"1190",132,"35","english",6,3,"ice cream cones",TRUE,1,1294,"positive","item"
"1191",132,"35","english",7,2,"plants",TRUE,1,943,"positive","item"
"1192",132,"35","english",8,1,"phones",TRUE,1,1678,"negative","nothing"
"1193",132,"35","english",9,2,"daisies",FALSE,1,1157,"negative","item"
"1194",132,"35","english",10,2,"guitars",FALSE,1,726,"negative","item"
"1195",132,"35","english",11,3,"bows",FALSE,0,1199,"positive","item"
"1196",132,"35","english",12,3,"apples",FALSE,1,1111,"positive","nothing"
"1197",132,"35","english",13,1,"cars",TRUE,1,863,"positive","item"
"1198",132,"35","english",14,2,"balloons",TRUE,1,615,"positive","item"
"1199",132,"35","english",15,3,"lollipops",FALSE,1,710,"positive","nothing"
"1200",132,"35","english",16,3,"scissors",FALSE,1,960,"negative","item"
"1201",132,"35","english",17,1,"shovels",FALSE,1,893,"positive","nothing"
"1202",132,"35","english",18,3,"dogs",FALSE,1,750,"negative","item"
"1203",132,"35","english",19,0,"donuts",FALSE,1,695,"negative","item"
"1204",132,"35","english",20,1,"pencils",TRUE,1,1279,"negative","nothing"
"1205",132,"35","english",21,1,"bananas",TRUE,1,2007,"positive","item"
"1206",132,"35","english",22,0,"forks",FALSE,1,623,"negative","item"
"1207",132,"35","english",23,1,"umbrellas",FALSE,1,822,"negative","item"
"1208",132,"35","english",24,1,"presents",FALSE,1,654,"negative","item"
"1209",132,"35","english",25,0,"cats",TRUE,1,1295,"negative","nothing"
"1210",132,"35","english",26,2,"flowers",FALSE,1,1038,"positive","nothing"
"1211",132,"35","english",27,0,"rainboots",FALSE,1,1383,"positive","nothing"
"1212",132,"35","english",28,2,"mittens",TRUE,1,1023,"negative","nothing"
"1213",132,"35","english",29,0,"buckets",TRUE,1,863,"positive","item"
"1214",132,"35","english",30,0,"keys",TRUE,1,911,"positive","item"
"1215",132,"35","english",31,2,"kites",FALSE,1,1175,"positive","nothing"
"1216",132,"35","english",32,3,"fish",TRUE,1,1159,"negative","nothing"
"1217",191,"25","English",1,2,"presents",TRUE,1,932,"negative","nothing"
"1218",191,"25","English",2,2,"forks",TRUE,1,1118,"negative","nothing"
"1219",191,"25","English",3,2,"cars",FALSE,1,944,"positive","nothing"
"1220",191,"25","English",4,3,"kites",FALSE,1,929,"negative","item"
"1221",191,"25","English",5,3,"fish",TRUE,1,717,"positive","item"
"1222",191,"25","English",6,3,"donuts",TRUE,1,718,"positive","item"
"1223",191,"25","English",7,0,"mittens",FALSE,1,1112,"positive","nothing"
"1224",191,"25","English",8,3,"cookies",FALSE,1,865,"positive","nothing"
"1225",191,"25","English",9,0,"keys",FALSE,1,973,"positive","nothing"
"1226",191,"25","English",10,2,"balloons",TRUE,1,759,"positive","item"
"1227",191,"25","English",11,1,"umbrellas",FALSE,1,829,"negative","item"
"1228",191,"25","English",12,1,"shovels",TRUE,1,718,"positive","item"
"1229",191,"25","English",13,0,"daisies",FALSE,1,629,"negative","item"
"1230",191,"25","English",14,0,"crayons",TRUE,1,1157,"negative","nothing"
"1231",191,"25","English",15,2,"rainboots",FALSE,1,1080,"negative","item"
"1232",191,"25","English",16,1,"cakes",FALSE,1,944,"positive","nothing"
"1233",191,"25","English",17,0,"ice cream cones",TRUE,1,1157,"negative","nothing"
"1234",191,"25","English",18,1,"carrots",TRUE,1,1051,"negative","nothing"
"1235",191,"25","English",19,3,"phones",TRUE,1,1081,"negative","nothing"
"1236",191,"25","English",20,0,"guitars",TRUE,1,585,"positive","item"
"1237",191,"25","English",21,2,"bananas",TRUE,1,737,"positive","item"
"1238",191,"25","English",22,1,"apples",FALSE,1,687,"negative","item"
"1239",191,"25","English",23,2,"cats",FALSE,1,1193,"negative","item"
"1240",191,"25","English",24,1,"dogs",FALSE,1,696,"positive","nothing"
"1241",191,"25","English",25,0,"lollipops",FALSE,1,1712,"negative","item"
"1242",191,"25","English",26,3,"scissors",FALSE,1,767,"positive","nothing"
"1243",191,"25","English",27,2,"flowers",FALSE,1,848,"positive","nothing"
"1244",191,"25","English",28,3,"pencils",TRUE,1,730,"negative","nothing"
"1245",191,"25","English",29,1,"buckets",TRUE,1,638,"negative","nothing"
"1246",191,"25","English",30,1,"bows",TRUE,1,1034,"positive","item"
"1247",191,"25","English",31,3,"purses",FALSE,1,1135,"negative","item"
"1248",191,"25","English",32,0,"plants",TRUE,1,1432,"positive","item"
"1249",294,"35","English",1,0,"carrots",FALSE,1,3537,"positive","nothing"
"1250",294,"35","English",2,1,"scissors",FALSE,1,7330,"positive","nothing"
"1251",294,"35","English",3,3,"rainboots",TRUE,1,2688,"negative","nothing"
"1252",294,"35","English",4,1,"guitars",TRUE,1,9370,"positive","item"
"1253",294,"35","English",5,2,"mittens",FALSE,1,5960,"positive","nothing"
"1254",294,"35","English",6,1,"daisies",TRUE,1,5513,"positive","item"
"1255",294,"35","English",7,0,"ice cream cones",TRUE,1,4659,"positive","item"
"1256",294,"35","English",8,3,"bows",TRUE,0,2953,"negative","item"
"1257",294,"35","English",9,2,"purses",FALSE,1,13842,"positive","nothing"
"1258",294,"35","English",10,2,"bananas",FALSE,1,1538,"negative","item"
"1259",294,"35","English",11,3,"lollipops",FALSE,1,8107,"positive","nothing"
"1260",294,"35","English",12,3,"buckets",TRUE,1,2224,"positive","item"
"1261",294,"35","English",13,3,"cookies",TRUE,1,2748,"positive","item"
"1262",294,"35","English",14,1,"dogs",TRUE,1,16084,"negative","nothing"
"1263",294,"35","English",15,3,"apples",TRUE,1,4650,"negative","nothing"
"1264",294,"35","English",16,0,"balloons",TRUE,1,3127,"negative","nothing"
"1265",294,"35","English",17,0,"kites",TRUE,1,1554,"negative","nothing"
"1266",294,"35","English",18,2,"pencils",TRUE,1,2338,"negative","nothing"
"1267",294,"35","English",19,0,"keys",TRUE,1,1777,"positive","item"
"1268",294,"35","English",20,1,"shovels",FALSE,1,2737,"positive","nothing"
"1269",294,"35","English",21,3,"donuts",FALSE,1,2523,"negative","item"
"1270",294,"35","English",22,3,"presents",FALSE,1,4296,"positive","nothing"
"1271",294,"35","English",23,0,"cars",FALSE,1,1792,"negative","item"
"1272",294,"35","English",24,0,"plants",FALSE,1,2306,"negative","item"
"1273",294,"35","English",25,2,"fish",TRUE,1,2434,"positive","item"
"1274",294,"35","English",26,0,"cats",FALSE,1,3922,"positive","nothing"
"1275",294,"35","English",27,2,"cakes",TRUE,1,1667,"positive","item"
"1276",294,"35","English",28,1,"forks",FALSE,1,7219,"negative","item"
"1277",294,"35","English",29,2,"umbrellas",TRUE,1,2392,"negative","nothing"
"1278",294,"35","English",30,2,"phones",FALSE,1,2818,"negative","item"
"1279",294,"35","English",31,1,"crayons",FALSE,1,1393,"negative","item"
"1280",294,"35","English",32,1,"flowers",TRUE,1,3009,"negative","nothing"
"1281",376,"25","english",1,1,"kites",TRUE,1,1309,"positive","item"
"1282",376,"25","english",2,2,"balloons",TRUE,1,1174,"negative","nothing"
"1283",376,"25","english",3,3,"cars",FALSE,1,873,"positive","nothing"
"1284",376,"25","english",4,0,"umbrellas",TRUE,1,718,"positive","item"
"1285",376,"25","english",5,0,"bananas",TRUE,1,1218,"negative","nothing"
"1286",376,"25","english",6,3,"crayons",TRUE,1,1015,"negative","nothing"
"1287",376,"25","english",7,1,"donuts",TRUE,1,1241,"negative","nothing"
"1288",376,"25","english",8,3,"phones",TRUE,0,1269,"negative","item"
"1289",376,"25","english",9,0,"cakes",FALSE,1,1037,"negative","item"
"1290",376,"25","english",10,2,"forks",FALSE,1,927,"negative","item"
"1291",376,"25","english",11,1,"scissors",FALSE,1,1335,"positive","nothing"
"1292",376,"25","english",12,2,"cookies",FALSE,1,1383,"negative","item"
"1293",376,"25","english",13,2,"purses",FALSE,1,1734,"positive","nothing"
"1294",376,"25","english",14,0,"lollipops",FALSE,1,1053,"positive","nothing"
"1295",376,"25","english",15,0,"flowers",TRUE,1,1278,"positive","item"
"1296",376,"25","english",16,0,"ice cream cones",FALSE,1,1111,"negative","item"
"1297",376,"25","english",17,1,"buckets",FALSE,1,1148,"negative","item"
"1298",376,"25","english",18,2,"daisies",TRUE,1,1478,"negative","nothing"
"1299",376,"25","english",19,2,"fish",TRUE,1,1088,"positive","item"
"1300",376,"25","english",20,1,"rainboots",FALSE,1,1379,"positive","nothing"
"1301",376,"25","english",21,3,"shovels",FALSE,1,745,"negative","item"
"1302",376,"25","english",22,3,"bows",TRUE,1,1363,"positive","item"
"1303",376,"25","english",23,3,"carrots",TRUE,1,1030,"negative","nothing"
"1304",376,"25","english",24,2,"guitars",TRUE,1,1140,"positive","item"
"1305",376,"25","english",25,1,"dogs",TRUE,1,1216,"negative","nothing"
"1306",376,"25","english",26,1,"pencils",FALSE,1,1366,"negative","item"
"1307",376,"25","english",27,3,"plants",FALSE,1,1434,"positive","nothing"
"1308",376,"25","english",28,3,"presents",TRUE,1,1122,"positive","item"
"1309",376,"25","english",29,2,"keys",FALSE,1,1112,"positive","nothing"
"1310",376,"25","english",30,1,"apples",TRUE,1,1042,"positive","item"
"1311",376,"25","english",31,0,"cats",FALSE,1,974,"positive","nothing"
"1312",376,"25","english",32,0,"mittens",TRUE,1,1865,"negative","nothing"
"1313",29,"25","English",1,1,"flowers",FALSE,1,1012,"positive","nothing"
"1314",29,"25","English",2,3,"fish",FALSE,1,637,"positive","nothing"
"1315",29,"25","English",3,2,"carrots",FALSE,1,1121,"negative","item"
"1316",29,"25","English",4,1,"balloons",FALSE,1,537,"positive","nothing"
"1317",29,"25","English",5,0,"plants",TRUE,1,983,"negative","nothing"
"1318",29,"25","English",6,0,"cakes",TRUE,1,964,"positive","item"
"1319",29,"25","English",7,3,"lollipops",FALSE,1,481,"positive","nothing"
"1320",29,"25","English",8,2,"purses",TRUE,1,598,"positive","item"
"1321",29,"25","English",9,0,"pencils",TRUE,1,1006,"negative","nothing"
"1322",29,"25","English",10,2,"keys",TRUE,1,791,"negative","nothing"
"1323",29,"25","English",11,3,"donuts",TRUE,1,833,"negative","nothing"
"1324",29,"25","English",12,1,"guitars",TRUE,1,802,"positive","item"
"1325",29,"25","English",13,3,"presents",TRUE,1,744,"negative","nothing"
"1326",29,"25","English",14,1,"dogs",TRUE,1,622,"positive","item"
"1327",29,"25","English",15,1,"phones",FALSE,1,579,"negative","item"
"1328",29,"25","English",16,3,"scissors",TRUE,1,536,"positive","item"
"1329",29,"25","English",17,2,"shovels",FALSE,1,608,"negative","item"
"1330",29,"25","English",18,3,"buckets",FALSE,1,665,"negative","item"
"1331",29,"25","English",19,1,"mittens",TRUE,1,778,"negative","nothing"
"1332",29,"25","English",20,0,"bows",TRUE,1,655,"positive","item"
"1333",29,"25","English",21,2,"cookies",TRUE,1,519,"positive","item"
"1334",29,"25","English",22,3,"crayons",FALSE,1,765,"negative","item"
"1335",29,"25","English",23,2,"umbrellas",FALSE,1,1034,"positive","nothing"
"1336",29,"25","English",24,3,"ice cream cones",TRUE,1,783,"positive","item"
"1337",29,"25","English",25,0,"cars",FALSE,1,1023,"positive","nothing"
"1338",29,"25","English",26,2,"bananas",TRUE,1,830,"negative","nothing"
"1339",29,"25","English",27,1,"rainboots",FALSE,1,948,"negative","item"
"1340",29,"25","English",28,0,"forks",FALSE,1,793,"positive","nothing"
"1341",29,"25","English",29,0,"apples",FALSE,1,964,"negative","item"
"1342",29,"25","English",30,2,"daisies",FALSE,1,1028,"positive","nothing"
"1343",29,"25","English",31,1,"kites",TRUE,1,777,"negative","nothing"
"1344",29,"25","English",32,0,"cats",FALSE,1,591,"negative","item"
"1345",46,"25","english",1,1,"plants",TRUE,1,1602,"positive","item"
"1346",46,"25","english",2,0,"pencils",TRUE,1,770,"positive","item"
"1347",46,"25","english",3,0,"dogs",TRUE,1,1323,"negative","nothing"
"1348",46,"25","english",4,2,"bows",TRUE,1,1111,"positive","item"
"1349",46,"25","english",5,0,"bananas",FALSE,1,981,"positive","nothing"
"1350",46,"25","english",6,1,"cars",FALSE,1,666,"positive","nothing"
"1351",46,"25","english",7,1,"apples",TRUE,1,695,"positive","item"
"1352",46,"25","english",8,3,"buckets",TRUE,1,1029,"negative","nothing"
"1353",46,"25","english",9,3,"forks",FALSE,1,1685,"positive","nothing"
"1354",46,"25","english",10,3,"balloons",FALSE,1,972,"negative","item"
"1355",46,"25","english",11,1,"flowers",FALSE,1,1503,"negative","item"
"1356",46,"25","english",12,0,"shovels",FALSE,1,654,"negative","item"
"1357",46,"25","english",13,2,"mittens",TRUE,1,1029,"positive","item"
"1358",46,"25","english",14,0,"rainboots",TRUE,1,2280,"negative","nothing"
"1359",46,"25","english",15,2,"cookies",FALSE,1,934,"positive","nothing"
"1360",46,"25","english",16,0,"crayons",FALSE,1,907,"negative","item"
"1361",46,"25","english",17,3,"phones",FALSE,1,935,"negative","item"
"1362",46,"25","english",18,1,"carrots",TRUE,1,1247,"negative","nothing"
"1363",46,"25","english",19,1,"kites",FALSE,1,911,"positive","nothing"
"1364",46,"25","english",20,3,"guitars",TRUE,1,726,"positive","item"
"1365",46,"25","english",21,2,"presents",FALSE,1,949,"negative","item"
"1366",46,"25","english",22,2,"cakes",TRUE,1,1631,"negative","nothing"
"1367",46,"25","english",23,3,"fish",FALSE,1,876,"positive","nothing"
"1368",46,"25","english",24,3,"ice cream cones",TRUE,1,1047,"negative","nothing"
"1369",46,"25","english",25,0,"daisies",TRUE,1,709,"positive","item"
"1370",46,"25","english",26,1,"purses",TRUE,1,1004,"negative","nothing"
"1371",46,"25","english",27,2,"lollipops",FALSE,1,775,"positive","nothing"
"1372",46,"25","english",28,0,"umbrellas",FALSE,1,958,"positive","nothing"
"1373",46,"25","english",29,2,"keys",TRUE,1,1285,"negative","nothing"
"1374",46,"25","english",30,3,"scissors",TRUE,1,622,"positive","item"
"1375",46,"25","english",31,1,"donuts",FALSE,1,910,"negative","item"
"1376",46,"25","english",32,2,"cats",FALSE,1,1615,"negative","item"
"1377",149,"35","english",1,1,"cookies",FALSE,1,1777,"negative","item"
"1378",149,"35","english",2,2,"kites",TRUE,1,1209,"negative","nothing"
"1379",149,"35","english",3,0,"plants",TRUE,1,1280,"positive","item"
"1380",149,"35","english",4,1,"umbrellas",TRUE,1,2306,"negative","nothing"
"1381",149,"35","english",5,0,"keys",TRUE,1,4133,"negative","nothing"
"1382",149,"35","english",6,0,"forks",FALSE,1,1050,"negative","item"
"1383",149,"35","english",7,0,"flowers",TRUE,1,790,"positive","item"
"1384",149,"35","english",8,2,"pencils",FALSE,1,1200,"negative","item"
"1385",149,"35","english",9,2,"purses",TRUE,1,1437,"negative","nothing"
"1386",149,"35","english",10,3,"dogs",FALSE,1,1069,"negative","item"
"1387",149,"35","english",11,1,"cakes",TRUE,1,1753,"positive","item"
"1388",149,"35","english",12,1,"scissors",TRUE,1,1117,"negative","nothing"
"1389",149,"35","english",13,2,"phones",FALSE,1,1157,"negative","item"
"1390",149,"35","english",14,1,"rainboots",FALSE,1,1381,"positive","nothing"
"1391",149,"35","english",15,0,"donuts",TRUE,1,1550,"negative","nothing"
"1392",149,"35","english",16,0,"mittens",FALSE,1,2202,"positive","nothing"
"1393",149,"35","english",17,1,"ice cream cones",FALSE,1,927,"negative","item"
"1394",149,"35","english",18,3,"lollipops",TRUE,1,1184,"negative","nothing"
"1395",149,"35","english",19,2,"balloons",FALSE,0,710,"positive","item"
"1396",149,"35","english",20,3,"carrots",FALSE,1,868,"positive","nothing"
"1397",149,"35","english",21,3,"cars",FALSE,1,1490,"negative","item"
"1398",149,"35","english",22,2,"shovels",TRUE,1,2160,"positive","item"
"1399",149,"35","english",23,3,"bananas",TRUE,1,947,"positive","item"
"1400",149,"35","english",24,0,"presents",FALSE,1,757,"negative","item"
"1401",149,"35","english",25,0,"guitars",FALSE,1,1320,"positive","nothing"
"1402",149,"35","english",26,3,"fish",TRUE,1,1098,"negative","nothing"
"1403",149,"35","english",27,3,"crayons",TRUE,1,580,"positive","item"
"1404",149,"35","english",28,2,"bows",FALSE,1,2479,"positive","nothing"
"1405",149,"35","english",29,1,"cats",TRUE,1,840,"positive","item"
"1406",149,"35","english",30,2,"daisies",FALSE,1,1276,"positive","nothing"
"1407",149,"35","english",31,1,"apples",TRUE,0,640,"positive","nothing"
"1408",149,"35","english",32,3,"buckets",FALSE,1,1290,"positive","nothing"
"1409",395,"25","english",1,1,"daisies",FALSE,1,982,"negative","item"
"1410",395,"25","english",2,0,"cookies",TRUE,1,1353,"negative","nothing"
"1411",395,"25","english",3,1,"flowers",FALSE,1,886,"negative","item"
"1412",395,"25","english",4,3,"cakes",TRUE,1,1298,"positive","item"
"1413",395,"25","english",5,0,"phones",FALSE,1,1178,"positive","nothing"
"1414",395,"25","english",6,2,"lollipops",FALSE,1,878,"positive","nothing"
"1415",395,"25","english",7,1,"kites",FALSE,1,1277,"positive","nothing"
"1416",395,"25","english",8,2,"bows",TRUE,1,1428,"positive","item"
"1417",395,"25","english",9,3,"mittens",TRUE,1,1674,"negative","nothing"
"1418",395,"25","english",10,0,"buckets",TRUE,1,1191,"negative","nothing"
"1419",395,"25","english",11,0,"cars",FALSE,1,2292,"negative","item"
"1420",395,"25","english",12,1,"apples",TRUE,1,1160,"negative","nothing"
"1421",395,"25","english",13,2,"fish",FALSE,1,1334,"negative","item"
"1422",395,"25","english",14,2,"crayons",TRUE,1,1054,"negative","nothing"
"1423",395,"25","english",15,3,"shovels",FALSE,1,1601,"positive","nothing"
"1424",395,"25","english",16,0,"keys",FALSE,1,876,"negative","item"
"1425",395,"25","english",17,2,"purses",TRUE,1,1728,"negative","nothing"
"1426",395,"25","english",18,3,"rainboots",TRUE,1,1179,"negative","nothing"
"1427",395,"25","english",19,3,"donuts",FALSE,1,1115,"negative","item"
"1428",395,"25","english",20,2,"pencils",FALSE,1,1703,"positive","nothing"
"1429",395,"25","english",21,1,"cats",TRUE,1,1210,"positive","item"
"1430",395,"25","english",22,1,"forks",FALSE,1,922,"positive","nothing"
"1431",395,"25","english",23,3,"dogs",FALSE,1,953,"positive","nothing"
"1432",395,"25","english",24,0,"carrots",TRUE,1,979,"positive","item"
"1433",395,"25","english",25,3,"bananas",FALSE,1,1153,"negative","item"
"1434",395,"25","english",26,0,"umbrellas",TRUE,1,1454,"positive","item"
"1435",395,"25","english",27,2,"ice cream cones",FALSE,1,1716,"negative","item"
"1436",395,"25","english",28,3,"scissors",TRUE,1,968,"positive","item"
"1437",395,"25","english",29,2,"guitars",TRUE,1,816,"positive","item"
"1438",395,"25","english",30,1,"plants",TRUE,1,991,"negative","nothing"
"1439",395,"25","english",31,1,"balloons",TRUE,1,1121,"positive","item"
"1440",395,"25","english",32,0,"presents",FALSE,1,1200,"positive","nothing"
"1441",347,"35","english",1,0,"umbrellas",TRUE,1,1247,"negative","nothing"
"1442",347,"35","english",2,3,"cars",TRUE,1,1597,"positive","item"
"1443",347,"35","english",3,2,"keys",TRUE,1,783,"positive","item"
"1444",347,"35","english",4,1,"mittens",TRUE,1,769,"positive","item"
"1445",347,"35","english",5,1,"dogs",TRUE,1,1099,"negative","nothing"
"1446",347,"35","english",6,0,"purses",TRUE,1,1483,"negative","nothing"
"1447",347,"35","english",7,3,"cats",TRUE,1,992,"negative","nothing"
"1448",347,"35","english",8,1,"cookies",FALSE,1,1193,"negative","item"
"1449",347,"35","english",9,2,"ice cream cones",TRUE,1,1142,"positive","item"
"1450",347,"35","english",10,1,"kites",FALSE,1,698,"positive","nothing"
"1451",347,"35","english",11,3,"cakes",FALSE,1,949,"positive","nothing"
"1452",347,"35","english",12,1,"buckets",TRUE,1,1263,"negative","nothing"
"1453",347,"35","english",13,1,"crayons",FALSE,1,1088,"positive","nothing"
"1454",347,"35","english",14,1,"guitars",FALSE,1,837,"negative","item"
"1455",347,"35","english",15,2,"flowers",TRUE,1,1277,"negative","nothing"
"1456",347,"35","english",16,2,"lollipops",FALSE,1,786,"positive","nothing"
"1457",347,"35","english",17,0,"apples",FALSE,1,995,"positive","nothing"
"1458",347,"35","english",18,0,"bananas",FALSE,1,1027,"positive","nothing"
"1459",347,"35","english",19,0,"presents",FALSE,1,1097,"negative","item"
"1460",347,"35","english",20,3,"forks",TRUE,1,1184,"negative","nothing"
"1461",347,"35","english",21,3,"shovels",FALSE,1,1186,"negative","item"
"1462",347,"35","english",22,3,"daisies",FALSE,0,1144,"positive","item"
"1463",347,"35","english",23,2,"bows",FALSE,1,2410,"negative","item"
"1464",347,"35","english",24,0,"balloons",TRUE,1,1114,"positive","item"
"1465",347,"35","english",25,2,"donuts",FALSE,1,886,"negative","item"
"1466",347,"35","english",26,0,"phones",TRUE,1,1327,"positive","item"
"1467",347,"35","english",27,1,"scissors",TRUE,1,1164,"positive","item"
"1468",347,"35","english",28,2,"plants",FALSE,1,1443,"positive","nothing"
"1469",347,"35","english",29,3,"pencils",FALSE,1,937,"positive","nothing"
"1470",347,"35","english",30,2,"rainboots",TRUE,1,1744,"negative","nothing"
