"","subid","gender","age","language","trial.num","context.condition","item","response","correct","rt","text.condition","image.condition"
"1",1,"NA","45","English","1","0","car","TRUE","1","917","positive","item"
"2",1,"NA","45","English","2","3","tiger","TRUE","1","1150","positive","item"
"3",1,"NA","45","English","3","0","chicken","FALSE","0","767","negative","alt"
"4",1,"NA","45","English","4","3","dog","TRUE","1","1415","negative","alt"
"5",1,"NA","45","English","5","1","cat","TRUE","1","1085","negative","alt"
"6",1,"NA","45","English","6","0","fish","TRUE","1","634","positive","item"
"7",1,"NA","45","English","7","0","plate","FALSE","1","768","negative","item"
"8",1,"NA","45","English","8","2","balloon","TRUE","1","1123","negative","alt"
"9",1,"NA","45","English","9","1","key","TRUE","1","520","positive","item"
"10",1,"NA","45","English","10","0","popsicle","TRUE","1","1734","negative","alt"
"11",1,"NA","45","English","11","3","bee","TRUE","1","1150","negative","alt"
"12",1,"NA","45","English","12","3","bus","TRUE","1","951","positive","item"
"13",1,"NA","45","English","13","2","table","FALSE","1","968","negative","item"
"14",1,"NA","45","English","14","1","duck","TRUE","1","785","positive","item"
"15",1,"NA","45","English","15","1","clock","TRUE","1","648","positive","item"
"16",1,"NA","45","English","16","2","bell","TRUE","1","1035","negative","alt"
"17",1,"NA","45","English","17","2","lion","FALSE","1","1350","negative","item"
"18",1,"NA","45","English","18","1","frog","FALSE","1","1034","negative","item"
"19",1,"NA","45","English","19","0","penguin","FALSE","1","725","positive","alt"
"20",1,"NA","45","English","20","2","guitar","FALSE","1","1412","positive","alt"
"21",1,"NA","45","English","21","3","cookie","FALSE","1","801","negative","item"
"22",1,"NA","45","English","22","1","phone","TRUE","1","1317","negative","alt"
"23",1,"NA","45","English","23","1","lamp","FALSE","1","886","positive","alt"
"24",1,"NA","45","English","24","0","monkey","TRUE","1","901","positive","item"
"25",1,"NA","45","English","25","0","flower","FALSE","1","668","positive","alt"
"26",1,"NA","45","English","26","3","giraffe","TRUE","1","901","negative","alt"
"27",1,"NA","45","English","27","2","carrot","FALSE","1","1359","positive","alt"
"28",1,"NA","45","English","28","3","shoe","FALSE","1","702","negative","item"
"29",1,"NA","45","English","29","0","watch","FALSE","1","777","negative","item"
"30",1,"NA","45","English","30","3","paintbrush","TRUE","1","1137","negative","alt"
"31",1,"NA","45","English","31","2","mitten","FALSE","1","1043","positive","alt"
"32",1,"NA","45","English","32","2","strawberry","FALSE","1","817","positive","alt"
"33",1,"NA","45","English","33","1","train","FALSE","1","748","negative","item"
"34",1,"NA","45","English","34","2","bucket","FALSE","1","1618","negative","item"
"35",1,"NA","45","English","35","2","shirt","TRUE","1","685","positive","item"
"36",1,"NA","45","English","36","1","turtle","TRUE","1","1300","negative","alt"
"37",1,"NA","45","English","37","2","pear","FALSE","1","750","negative","item"
"38",1,"NA","45","English","38","3","drum","TRUE","1","651","positive","item"
"39",1,"NA","45","English","39","3","fork","FALSE","1","751","positive","alt"
"40",1,"NA","45","English","40","3","butterfly","FALSE","1","802","positive","alt"
"41",1,"NA","45","English","41","1","pencil","FALSE","1","1199","negative","item"
"42",1,"NA","45","English","42","2","spoon","TRUE","1","651","positive","item"
"43",1,"NA","45","English","43","3","tree","TRUE","1","601","positive","item"
"44",1,"NA","45","English","44","1","sheep","TRUE","1","651","positive","item"
"45",1,"NA","45","English","45","0","plane","TRUE","1","1201","negative","alt"
"46",1,"NA","45","English","46","0","hat","FALSE","1","1168","positive","alt"
"47",1,"NA","45","English","47","3","banana","FALSE","1","1185","negative","item"
"48",1,"NA","45","English","48","1","apple","FALSE","1","1135","positive","alt"
"49",1,"NA","45","English","49","2","cow","TRUE","1","817","positive","item"
"50",1,"NA","45","English","50","3","horse","FALSE","1","783","positive","alt"
"51",1,"NA","45","English","51","2","cake","TRUE","1","1069","positive","item"
"52",1,"NA","45","English","52","3","sock","FALSE","1","865","positive","alt"
"53",1,"NA","45","English","53","3","bike","FALSE","1","1217","negative","item"
"54",1,"NA","45","English","54","1","chair","FALSE","1","1481","negative","item"
"55",1,"NA","45","English","55","2","elephant","TRUE","1","1284","negative","alt"
"56",1,"NA","45","English","56","0","purse","FALSE","1","1205","positive","alt"
"57",1,"NA","45","English","57","0","crayon","TRUE","1","793","positive","item"
"58",1,"NA","45","English","58","0","goat","FALSE","1","1168","negative","item"
"59",1,"NA","45","English","59","1","donut","FALSE","1","1617","positive","alt"
"60",1,"NA","45","English","60","0","house","TRUE","1","1250","negative","alt"
"61",1,"NA","45","English","61","1","toothbrush","TRUE","1","1567","negative","alt"
"62",1,"NA","45","English","62","0","fence","FALSE","1","1333","negative","item"
"63",1,"NA","45","English","63","1","pretzel","FALSE","1","1053","positive","alt"
"64",1,"NA","45","English","64","2","pig","TRUE","1","1101","negative","alt"
"65",2,"NA","35","English","1","0","elephant","FALSE","1","1292","positive","alt"
"66",2,"NA","35","English","2","1","bucket","TRUE","1","2058","negative","alt"
"67",2,"NA","35","English","3","2","crayon","TRUE","0","1911","positive","alt"
"68",2,"NA","35","English","4","2","butterfly","TRUE","1","755","positive","item"
"69",2,"NA","35","English","5","3","car","FALSE","1","1124","negative","item"
"70",2,"NA","35","English","6","3","bike","TRUE","1","1120","positive","item"
"71",2,"NA","35","English","7","0","chair","FALSE","0","964","negative","alt"
"72",2,"NA","35","English","8","1","drum","TRUE","1","863","positive","item"
"73",2,"NA","35","English","9","0","pretzel","TRUE","1","766","positive","item"
"74",2,"NA","35","English","10","1","dog","TRUE","1","1429","negative","alt"
"75",2,"NA","35","English","11","1","plane","FALSE","1","1604","positive","alt"
"76",2,"NA","35","English","12","1","turtle","TRUE","1","984","positive","item"
"77",2,"NA","35","English","13","0","carrot","FALSE","1","1129","positive","alt"
"78",2,"NA","35","English","14","1","horse","TRUE","1","1354","negative","alt"
"79",2,"NA","35","English","15","2","lion","TRUE","1","2167","negative","alt"
"80",2,"NA","35","English","16","3","tree","TRUE","1","1297","negative","alt"
"81",2,"NA","35","English","17","2","paintbrush","FALSE","1","1503","negative","item"
"82",2,"NA","35","English","18","1","tiger","FALSE","1","1331","positive","alt"
"83",2,"NA","35","English","19","3","bus","TRUE","1","1521","positive","item"
"84",2,"NA","35","English","20","0","cow","FALSE","1","891","negative","item"
"85",2,"NA","35","English","21","1","plate","FALSE","1","2859","negative","item"
"86",2,"NA","35","English","22","3","purse","FALSE","1","1906","positive","alt"
"87",2,"NA","35","English","23","2","fence","TRUE","1","779","positive","item"
"88",2,"NA","35","English","24","3","penguin","FALSE","1","1116","negative","item"
"89",2,"NA","35","English","25","3","cat","FALSE","0","1440","negative","alt"
"90",2,"NA","35","English","26","2","flower","TRUE","1","1935","negative","alt"
"91",2,"NA","35","English","27","2","duck","FALSE","1","1739","positive","alt"
"92",2,"NA","35","English","28","3","fish","TRUE","1","716","positive","item"
"93",2,"NA","35","English","29","3","house","FALSE","1","1646","positive","alt"
"94",2,"NA","35","English","30","0","guitar","TRUE","1","1338","negative","alt"
"95",2,"NA","35","English","31","2","cookie","TRUE","1","862","positive","item"
"96",2,"NA","35","English","32","0","table","TRUE","1","697","positive","item"
"97",2,"NA","35","English","33","3","clock","FALSE","1","1409","negative","item"
"98",2,"NA","35","English","34","0","donut","FALSE","1","1614","positive","alt"
"99",2,"NA","35","English","35","2","toothbrush","TRUE","1","1487","negative","alt"
"100",2,"NA","35","English","36","1","pig","FALSE","1","975","positive","alt"
"101",2,"NA","35","English","37","2","giraffe","FALSE","1","1862","negative","item"
"102",2,"NA","35","English","38","2","shirt","FALSE","1","1258","positive","alt"
"103",2,"NA","35","English","39","3","spoon","FALSE","1","1324","positive","alt"
"104",2,"NA","35","English","40","0","banana","FALSE","0","1084","negative","alt"
"105",2,"NA","35","English","41","1","lamp","FALSE","1","1455","negative","item"
"106",2,"NA","35","English","42","3","phone","FALSE","1","1336","positive","alt"
"107",2,"NA","35","English","43","3","sheep","FALSE","0","1160","negative","alt"
"108",2,"NA","35","English","44","3","apple","TRUE","1","1544","negative","alt"
"109",2,"NA","35","English","45","1","cake","FALSE","1","928","negative","item"
"110",2,"NA","35","English","46","1","balloon","FALSE","1","825","negative","item"
"111",2,"NA","35","English","47","0","key","TRUE","1","776","positive","item"
"112",2,"NA","35","English","48","0","pear","TRUE","1","854","positive","item"
"113",2,"NA","35","English","49","2","bell","TRUE","1","786","positive","item"
"114",2,"NA","35","English","50","1","frog","FALSE","1","1315","positive","alt"
"115",2,"NA","35","English","51","0","monkey","FALSE","1","1393","negative","item"
"116",2,"NA","35","English","52","0","shoe","FALSE","1","1156","negative","item"
"117",2,"NA","35","English","53","3","strawberry","TRUE","1","802","positive","item"
"118",2,"NA","35","English","54","0","watch","TRUE","1","1456","negative","alt"
"119",2,"NA","35","English","55","1","goat","TRUE","1","963","positive","item"
"120",2,"NA","35","English","56","1","pencil","TRUE","1","677","positive","item"
"121",2,"NA","35","English","57","2","popsicle","FALSE","1","977","negative","item"
"122",2,"NA","35","English","58","0","bee","FALSE","1","754","positive","alt"
"123",2,"NA","35","English","59","1","chicken","TRUE","1","1259","negative","alt"
"124",2,"NA","35","English","60","3","hat","FALSE","1","740","negative","item"
"125",2,"NA","35","English","61","0","train","FALSE","1","701","negative","item"
"126",2,"NA","35","English","62","2","mitten","FALSE","1","2101","negative","item"
"127",2,"NA","35","English","63","2","fork","TRUE","1","2130","negative","alt"
"128",2,"NA","35","English","64","2","sock","TRUE","0","1368","positive","alt"
"129",3,"NA","35","Lithuanian","1","0","chair","TRUE","1","1925","negative","alt"
"130",3,"NA","35","Lithuanian","2","1","bike","TRUE","1","2280","negative","alt"
"131",3,"NA","35","Lithuanian","3","2","bus","TRUE","1","1645","positive","item"
"132",3,"NA","35","Lithuanian","4","3","guitar","TRUE","1","856","positive","item"
"133",3,"NA","35","Lithuanian","5","3","duck","TRUE","1","1696","negative","alt"
"134",3,"NA","35","Lithuanian","6","3","pretzel","FALSE","1","1280","negative","item"
"135",3,"NA","35","Lithuanian","7","0","dog","FALSE","1","1492","negative","item"
"136",3,"NA","35","Lithuanian","8","1","pear","FALSE","1","1228","positive","alt"
"137",3,"NA","35","Lithuanian","9","0","flower","TRUE","1","2568","negative","alt"
"138",3,"NA","35","Lithuanian","10","1","chicken","FALSE","1","1568","negative","item"
"139",3,"NA","35","Lithuanian","11","1","purse","TRUE","1","816","positive","item"
"140",3,"NA","35","Lithuanian","12","1","strawberry","FALSE","1","1024","positive","alt"
"141",3,"NA","35","Lithuanian","13","0","cow","FALSE","1","824","negative","item"
"142",3,"NA","35","Lithuanian","14","0","bell","FALSE","1","1128","positive","alt"
"143",3,"NA","35","Lithuanian","15","0","cookie","TRUE","1","572","positive","item"
"144",3,"NA","35","Lithuanian","16","2","toothbrush","FALSE","1","900","negative","item"
"145",3,"NA","35","Lithuanian","17","1","sock","FALSE","1","808","negative","item"
"146",3,"NA","35","Lithuanian","18","2","train","FALSE","1","872","positive","alt"
"147",3,"NA","35","Lithuanian","19","3","tree","TRUE","1","1652","negative","alt"
"148",3,"NA","35","Lithuanian","20","3","mitten","FALSE","1","940","positive","alt"
"149",3,"NA","35","Lithuanian","21","0","watch","TRUE","1","668","positive","item"
"150",3,"NA","35","Lithuanian","22","2","lamp","FALSE","1","892","negative","item"
"151",3,"NA","35","Lithuanian","23","2","table","TRUE","1","1304","negative","alt"
"152",3,"NA","35","Lithuanian","24","3","popsicle","TRUE","1","1260","negative","alt"
"153",3,"NA","35","Lithuanian","25","2","hat","TRUE","1","1032","positive","item"
"154",3,"NA","35","Lithuanian","26","2","lion","TRUE","1","1228","negative","alt"
"155",3,"NA","35","Lithuanian","27","1","shoe","TRUE","1","756","positive","item"
"156",3,"NA","35","Lithuanian","28","0","giraffe","TRUE","1","1312","negative","alt"
"157",3,"NA","35","Lithuanian","29","0","butterfly","TRUE","1","1120","negative","alt"
"158",3,"NA","35","Lithuanian","30","3","car","FALSE","1","1316","negative","item"
"159",3,"NA","35","Lithuanian","31","2","clock","FALSE","1","1488","positive","alt"
"160",3,"NA","35","Lithuanian","32","1","pencil","TRUE","1","1356","negative","alt"
"161",3,"NA","35","Lithuanian","33","3","cake","TRUE","1","1132","negative","alt"
"162",3,"NA","35","Lithuanian","34","0","paintbrush","TRUE","1","884","positive","item"
"163",3,"NA","35","Lithuanian","35","2","crayon","TRUE","1","676","positive","item"
"164",3,"NA","35","Lithuanian","36","0","spoon","FALSE","1","1336","negative","item"
"165",3,"NA","35","Lithuanian","37","3","bucket","FALSE","1","1360","negative","item"
"166",3,"NA","35","Lithuanian","38","3","cat","FALSE","1","933","negative","item"
"167",3,"NA","35","Lithuanian","39","1","key","FALSE","1","1316","positive","alt"
"168",3,"NA","35","Lithuanian","40","2","shirt","FALSE","1","1199","positive","alt"
"169",3,"NA","35","Lithuanian","41","0","apple","FALSE","1","1016","positive","alt"
"170",3,"NA","35","Lithuanian","42","1","sheep","FALSE","1","1540","negative","item"
"171",3,"NA","35","Lithuanian","43","3","pig","TRUE","1","700","positive","item"
"172",3,"NA","35","Lithuanian","44","3","fork","TRUE","1","904","positive","item"
"173",3,"NA","35","Lithuanian","45","2","penguin","FALSE","1","936","negative","item"
"174",3,"NA","35","Lithuanian","46","3","bee","FALSE","1","1084","positive","alt"
"175",3,"NA","35","Lithuanian","47","3","banana","TRUE","1","1044","positive","item"
"176",3,"NA","35","Lithuanian","48","3","frog","FALSE","1","1052","positive","alt"
"177",3,"NA","35","Lithuanian","49","0","fish","FALSE","1","1196","positive","alt"
"178",3,"NA","35","Lithuanian","50","2","donut","FALSE","1","900","negative","item"
"179",3,"NA","35","Lithuanian","51","1","fence","TRUE","1","1340","negative","alt"
"180",3,"NA","35","Lithuanian","52","2","horse","FALSE","1","1452","positive","alt"
"181",3,"NA","35","Lithuanian","53","2","plate","TRUE","1","2436","negative","alt"
"182",3,"NA","35","Lithuanian","54","3","balloon","FALSE","1","1144","positive","alt"
"183",3,"NA","35","Lithuanian","55","1","goat","TRUE","1","616","positive","item"
"184",3,"NA","35","Lithuanian","56","0","monkey","TRUE","1","852","positive","item"
"185",3,"NA","35","Lithuanian","57","0","phone","FALSE","1","880","positive","alt"
"186",3,"NA","35","Lithuanian","58","1","carrot","FALSE","1","920","negative","item"
"187",3,"NA","35","Lithuanian","59","2","plane","TRUE","1","1236","negative","alt"
"188",3,"NA","35","Lithuanian","60","1","turtle","FALSE","1","1316","positive","alt"
"189",3,"NA","35","Lithuanian","61","0","drum","FALSE","1","1120","negative","item"
"190",3,"NA","35","Lithuanian","62","1","house","TRUE","1","616","positive","item"
"191",3,"NA","35","Lithuanian","63","2","elephant","TRUE","1","728","positive","item"
"192",3,"NA","35","Lithuanian","64","1","tiger","TRUE","1","1589","negative","alt"
"193",4,"NA","35","English","1","2","cake","TRUE","0","923","negative","item"
"194",4,"NA","35","English","2","3","lion","TRUE","1","618","positive","item"
"195",4,"NA","35","English","3","3","chair","TRUE","1","655","positive","item"
"196",4,"NA","35","English","4","3","drum","FALSE","0","545","negative","alt"
"197",4,"NA","35","English","5","2","pear","TRUE","1","803","positive","item"
"198",4,"NA","35","English","6","0","cookie","FALSE","1","816","positive","alt"
"199",4,"NA","35","English","7","1","plane","FALSE","1","533","positive","alt"
"200",4,"NA","35","English","8","3","toothbrush","FALSE","1","783","positive","alt"
"201",4,"NA","35","English","9","1","turtle","TRUE","1","516","positive","item"
"202",4,"NA","35","English","10","0","fish","TRUE","1","1807","negative","alt"
"203",4,"NA","35","English","11","3","banana","FALSE","1","760","negative","item"
"204",4,"NA","35","English","12","3","bell","FALSE","1","807","negative","item"
"205",4,"NA","35","English","13","0","house","TRUE","1","793","positive","item"
"206",4,"NA","35","English","14","2","shirt","TRUE","1","765","positive","item"
"207",4,"NA","35","English","15","0","phone","TRUE","1","1068","negative","alt"
"208",4,"NA","35","English","16","3","frog","TRUE","0","842","negative","item"
"209",4,"NA","35","English","17","1","pig","FALSE","1","1157","negative","item"
"210",4,"NA","35","English","18","1","cat","TRUE","1","925","negative","alt"
"211",4,"NA","35","English","19","2","sheep","TRUE","1","4680","positive","item"
"212",4,"NA","35","English","20","0","carrot","FALSE","0","1455","positive","item"
"213",4,"NA","35","English","21","3","dog","TRUE","1","1932","negative","alt"
"214",4,"NA","35","English","22","0","shoe","FALSE","1","1630","positive","alt"
"215",4,"NA","35","English","23","0","guitar","TRUE","0","2599","positive","alt"
"216",4,"NA","35","English","24","2","train","TRUE","0","2213","positive","alt"
"217",4,"NA","35","English","25","1","plate","FALSE","1","1270","positive","alt"
"218",4,"NA","35","English","26","1","fork","FALSE","1","923","positive","alt"
"219",4,"NA","35","English","27","0","balloon","FALSE","1","1047","negative","item"
"220",4,"NA","35","English","28","3","chicken","TRUE","1","1117","positive","item"
"221",4,"NA","35","English","29","1","car","FALSE","1","759","negative","item"
"222",4,"NA","35","English","30","2","sock","FALSE","0","1254","negative","alt"
"223",4,"NA","35","English","31","3","pencil","FALSE","1","1105","positive","alt"
"224",4,"NA","35","English","32","0","strawberry","FALSE","0","1461","negative","alt"
"225",4,"NA","35","English","33","2","fence","FALSE","1","705","positive","alt"
"226",4,"NA","35","English","34","3","tiger","TRUE","1","1106","negative","alt"
"227",4,"NA","35","English","35","2","key","TRUE","1","1636","negative","alt"
"228",4,"NA","35","English","36","3","butterfly","TRUE","1","2401","negative","alt"
"229",4,"NA","35","English","37","1","cow","TRUE","1","1049","positive","item"
"230",4,"NA","35","English","38","0","tree","TRUE","1","670","positive","item"
"231",4,"NA","35","English","39","3","duck","TRUE","0","2655","positive","alt"
"232",4,"NA","35","English","40","0","monkey","FALSE","1","1164","negative","item"
"233",4,"NA","35","English","41","1","crayon","TRUE","1","949","negative","alt"
"234",4,"NA","35","English","42","3","goat","FALSE","1","1271","positive","alt"
"235",4,"NA","35","English","43","0","horse","TRUE","1","1201","negative","alt"
"236",4,"NA","35","English","44","2","spoon","FALSE","1","1608","negative","item"
"237",4,"NA","35","English","45","2","elephant","FALSE","1","1370","positive","alt"
"238",4,"NA","35","English","46","1","table","TRUE","1","1296","negative","alt"
"239",4,"NA","35","English","47","3","penguin","FALSE","1","1218","negative","item"
"240",4,"NA","35","English","48","0","hat","FALSE","1","1115","positive","alt"
"241",4,"NA","35","English","49","1","clock","FALSE","1","1444","negative","item"
"242",4,"NA","35","English","50","0","mitten","FALSE","1","833","negative","item"
"243",4,"NA","35","English","51","2","giraffe","TRUE","1","1455","negative","alt"
"244",4,"NA","35","English","52","1","bike","TRUE","1","920","positive","item"
"245",4,"NA","35","English","53","1","lamp","TRUE","1","1123","negative","alt"
"246",4,"NA","35","English","54","1","bucket","FALSE","1","1376","positive","alt"
"247",4,"NA","35","English","55","2","watch","FALSE","1","4594","negative","item"
"248",4,"NA","35","English","56","1","pretzel","FALSE","1","1118","negative","item"
"249",4,"NA","35","English","57","0","donut","FALSE","1","1650","negative","item"
"250",4,"NA","35","English","58","0","bus","TRUE","1","700","positive","item"
"251",4,"NA","35","English","59","1","apple","TRUE","1","2644","positive","item"
"252",4,"NA","35","English","60","2","flower","TRUE","1","1439","positive","item"
"253",4,"NA","35","English","61","3","popsicle","TRUE","1","784","positive","item"
"254",4,"NA","35","English","62","2","purse","FALSE","1","3488","positive","alt"
"255",4,"NA","35","English","63","2","bee","TRUE","1","2661","negative","alt"
"256",4,"NA","35","English","64","2","paintbrush","FALSE","1","3331","negative","item"
"257",5,"NA","66","english","1","3","fish","FALSE","1","1300","negative","item"
"258",5,"NA","66","english","2","1","balloon","TRUE","1","1095","positive","item"
"259",5,"NA","66","english","3","2","cat","FALSE","0","1633","negative","alt"
"260",5,"NA","66","english","4","3","shirt","FALSE","1","1962","negative","item"
"261",5,"NA","66","english","5","0","train","FALSE","1","2637","negative","item"
"262",5,"NA","66","english","6","3","mitten","FALSE","1","1911","positive","alt"
"263",5,"NA","66","english","7","0","frog","TRUE","1","1601","positive","item"
"264",5,"NA","66","english","8","0","goat","TRUE","1","1581","negative","alt"
"265",5,"NA","66","english","9","2","duck","FALSE","1","1422","negative","item"
"266",5,"NA","66","english","10","3","toothbrush","FALSE","1","2058","positive","alt"
"267",5,"NA","66","english","11","2","plane","FALSE","1","1975","negative","item"
"268",5,"NA","66","english","12","2","clock","TRUE","1","1341","positive","item"
"269",5,"NA","66","english","13","0","bee","FALSE","1","2064","negative","item"
"270",5,"NA","66","english","14","3","bike","FALSE","1","1662","negative","item"
"271",5,"NA","66","english","15","3","crayon","TRUE","1","1520","negative","alt"
"272",5,"NA","66","english","16","2","monkey","FALSE","1","1832","positive","alt"
"273",5,"NA","66","english","17","2","guitar","TRUE","1","1523","positive","item"
"274",5,"NA","66","english","18","1","horse","FALSE","1","1485","positive","alt"
"275",5,"NA","66","english","19","0","dog","FALSE","1","1733","negative","item"
"276",5,"NA","66","english","20","0","bucket","TRUE","1","1716","negative","alt"
"277",5,"NA","66","english","21","1","cake","TRUE","1","1239","positive","item"
"278",5,"NA","66","english","22","3","donut","FALSE","1","1131","negative","item"
"279",5,"NA","66","english","23","0","bell","FALSE","1","1664","positive","alt"
"280",5,"NA","66","english","24","2","lamp","TRUE","1","1960","negative","alt"
"281",5,"NA","66","english","25","1","apple","FALSE","1","1481","negative","item"
"282",5,"NA","66","english","26","1","purse","FALSE","1","1286","negative","item"
"283",5,"NA","66","english","27","1","paintbrush","FALSE","1","1571","negative","item"
"284",5,"NA","66","english","28","3","chicken","FALSE","1","1425","positive","alt"
"285",5,"NA","66","english","29","2","pig","TRUE","1","1488","negative","alt"
"286",5,"NA","66","english","30","1","turtle","TRUE","1","1292","negative","alt"
"287",5,"NA","66","english","31","1","sock","TRUE","1","1776","positive","item"
"288",5,"NA","66","english","32","2","key","TRUE","1","1695","negative","alt"
"289",5,"NA","66","english","33","0","pretzel","TRUE","1","1231","negative","alt"
"290",5,"NA","66","english","34","1","banana","TRUE","1","1527","negative","alt"
"291",5,"NA","66","english","35","2","pear","TRUE","1","1445","positive","item"
"292",5,"NA","66","english","36","3","butterfly","TRUE","1","1277","positive","item"
"293",5,"NA","66","english","37","0","carrot","FALSE","1","1343","positive","alt"
"294",5,"NA","66","english","38","3","hat","FALSE","1","1632","positive","alt"
"295",5,"NA","66","english","39","3","cookie","TRUE","1","1294","negative","alt"
"296",5,"NA","66","english","40","2","elephant","FALSE","1","1268","positive","alt"
"297",5,"NA","66","english","41","0","pencil","TRUE","1","1449","positive","item"
"298",5,"NA","66","english","42","3","sheep","TRUE","1","861","positive","item"
"299",5,"NA","66","english","43","1","strawberry","FALSE","1","1192","positive","alt"
"300",5,"NA","66","english","44","3","penguin","TRUE","1","1156","positive","item"
"301",5,"NA","66","english","45","0","giraffe","TRUE","1","1365","negative","alt"
"302",5,"NA","66","english","46","2","fork","TRUE","1","1048","positive","item"
"303",5,"NA","66","english","47","2","watch","FALSE","1","1005","positive","alt"
"304",5,"NA","66","english","48","1","flower","FALSE","1","1049","positive","alt"
"305",5,"NA","66","english","49","0","table","FALSE","1","1204","positive","alt"
"306",5,"NA","66","english","50","3","fence","TRUE","1","1341","negative","alt"
"307",5,"NA","66","english","51","0","house","TRUE","1","1434","positive","item"
"308",5,"NA","66","english","52","3","chair","TRUE","1","1045","positive","item"
"309",5,"NA","66","english","53","0","tree","TRUE","1","974","positive","item"
"310",5,"NA","66","english","54","0","drum","FALSE","1","1025","positive","alt"
"311",5,"NA","66","english","55","3","popsicle","TRUE","1","1262","negative","alt"
"312",5,"NA","66","english","56","1","lion","TRUE","1","1527","negative","alt"
"313",5,"NA","66","english","57","1","plate","FALSE","1","1781","positive","alt"
"314",5,"NA","66","english","58","1","car","TRUE","1","1114","positive","item"
"315",5,"NA","66","english","59","2","phone","FALSE","1","1360","negative","item"
"316",5,"NA","66","english","60","2","tiger","FALSE","1","1201","positive","alt"
"317",5,"NA","66","english","61","1","bus","TRUE","1","1462","negative","alt"
"318",5,"NA","66","english","62","1","shoe","FALSE","1","1390","negative","item"
"319",5,"NA","66","english","63","2","spoon","FALSE","1","1550","negative","item"
"320",5,"NA","66","english","64","0","cow","FALSE","1","1664","negative","item"
"321",6,"NA","25","English","1","1","giraffe","TRUE","1","530","positive","item"
"322",6,"NA","25","English","2","0","tiger","TRUE","1","608","positive","item"
"323",6,"NA","25","English","3","2","pear","FALSE","1","588","positive","alt"
"324",6,"NA","25","English","4","0","lion","FALSE","1","651","positive","alt"
"325",6,"NA","25","English","5","3","phone","TRUE","1","460","positive","item"
"326",6,"NA","25","English","6","2","bell","FALSE","1","533","positive","alt"
"327",6,"NA","25","English","7","0","sheep","FALSE","1","650","negative","item"
"328",6,"NA","25","English","8","3","pencil","FALSE","1","990","positive","alt"
"329",6,"NA","25","English","9","3","bike","TRUE","1","611","positive","item"
"330",6,"NA","25","English","10","2","crayon","TRUE","1","852","negative","alt"
"331",6,"NA","25","English","11","2","pig","TRUE","1","841","negative","alt"
"332",6,"NA","25","English","12","1","cat","TRUE","1","600","positive","item"
"333",6,"NA","25","English","13","1","drum","TRUE","1","727","positive","item"
"334",6,"NA","25","English","14","2","key","FALSE","1","900","positive","alt"
"335",6,"NA","25","English","15","0","carrot","TRUE","1","870","negative","alt"
"336",6,"NA","25","English","16","2","shoe","FALSE","1","666","negative","item"
"337",6,"NA","25","English","17","1","table","TRUE","1","854","negative","alt"
"338",6,"NA","25","English","18","3","butterfly","FALSE","1","777","positive","alt"
"339",6,"NA","25","English","19","2","balloon","FALSE","1","827","negative","item"
"340",6,"NA","25","English","20","3","cake","FALSE","1","776","negative","item"
"341",6,"NA","25","English","21","3","apple","FALSE","1","549","negative","item"
"342",6,"NA","25","English","22","1","cow","TRUE","1","813","negative","alt"
"343",6,"NA","25","English","23","3","duck","TRUE","1","942","positive","item"
"344",6,"NA","25","English","24","2","elephant","TRUE","1","531","positive","item"
"345",6,"NA","25","English","25","0","purse","TRUE","1","948","positive","item"
"346",6,"NA","25","English","26","3","lamp","TRUE","1","818","negative","alt"
"347",6,"NA","25","English","27","3","bus","TRUE","1","628","negative","alt"
"348",6,"NA","25","English","28","1","paintbrush","TRUE","1","718","positive","item"
"349",6,"NA","25","English","29","0","house","TRUE","1","668","negative","alt"
"350",6,"NA","25","English","30","1","strawberry","FALSE","1","790","negative","item"
"351",6,"NA","25","English","31","3","fork","FALSE","1","687","negative","item"
"352",6,"NA","25","English","32","1","monkey","FALSE","1","738","positive","alt"
"353",6,"NA","25","English","33","1","popsicle","TRUE","1","829","negative","alt"
"354",6,"NA","25","English","34","3","watch","TRUE","1","774","negative","alt"
"355",6,"NA","25","English","35","1","spoon","FALSE","1","648","negative","item"
"356",6,"NA","25","English","36","3","frog","TRUE","1","556","positive","item"
"357",6,"NA","25","English","37","2","guitar","FALSE","1","554","negative","item"
"358",6,"NA","25","English","38","3","mitten","TRUE","1","792","negative","alt"
"359",6,"NA","25","English","39","2","shirt","TRUE","1","562","negative","alt"
"360",6,"NA","25","English","40","0","train","TRUE","1","512","positive","item"
"361",6,"NA","25","English","41","1","pretzel","FALSE","1","753","negative","item"
"362",6,"NA","25","English","42","1","flower","FALSE","1","593","positive","alt"
"363",6,"NA","25","English","43","1","chair","FALSE","1","785","positive","alt"
"364",6,"NA","25","English","44","0","bucket","FALSE","1","577","positive","alt"
"365",6,"NA","25","English","45","0","toothbrush","TRUE","1","802","negative","alt"
"366",6,"NA","25","English","46","2","plate","TRUE","1","659","positive","item"
"367",6,"NA","25","English","47","1","hat","FALSE","1","596","positive","alt"
"368",6,"NA","25","English","48","0","penguin","FALSE","1","587","negative","item"
"369",6,"NA","25","English","49","0","turtle","TRUE","1","610","negative","alt"
"370",6,"NA","25","English","50","3","cookie","FALSE","1","646","positive","alt"
"371",6,"NA","25","English","51","2","clock","FALSE","1","601","positive","alt"
"372",6,"NA","25","English","52","0","chicken","FALSE","1","604","negative","item"
"373",6,"NA","25","English","53","2","car","FALSE","1","545","negative","item"
"374",6,"NA","25","English","54","0","donut","FALSE","1","529","positive","alt"
"375",6,"NA","25","English","55","1","tree","FALSE","1","514","negative","item"
"376",6,"NA","25","English","56","2","goat","TRUE","1","477","positive","item"
"377",6,"NA","25","English","57","0","bee","FALSE","1","497","positive","alt"
"378",6,"NA","25","English","58","1","plane","TRUE","1","696","negative","alt"
"379",6,"NA","25","English","59","3","sock","FALSE","1","596","negative","item"
"380",6,"NA","25","English","60","0","dog","TRUE","1","542","positive","item"
"381",6,"NA","25","English","61","0","horse","FALSE","1","517","negative","item"
"382",6,"NA","25","English","62","2","banana","FALSE","0","491","negative","alt"
"383",6,"NA","25","English","63","2","fence","TRUE","1","652","positive","item"
"384",6,"NA","25","English","64","3","fish","FALSE","1","562","positive","alt"
"385",7,"NA","45","English","1","2","phone","FALSE","1","653","positive","alt"
"386",7,"NA","45","English","2","0","plate","FALSE","0","926","negative","alt"
"387",7,"NA","45","English","3","0","goat","TRUE","1","1215","negative","alt"
"388",7,"NA","45","English","4","0","sheep","FALSE","1","905","positive","alt"
"389",7,"NA","45","English","5","3","mitten","TRUE","1","705","positive","item"
"390",7,"NA","45","English","6","2","chair","FALSE","1","704","positive","alt"
"391",7,"NA","45","English","7","0","dog","FALSE","1","1481","negative","item"
"392",7,"NA","45","English","8","0","shirt","FALSE","1","1104","positive","alt"
"393",7,"NA","45","English","9","2","spoon","FALSE","1","856","positive","alt"
"394",7,"NA","45","English","10","1","flower","FALSE","1","736","negative","item"
"395",7,"NA","45","English","11","1","lion","TRUE","1","664","positive","item"
"396",7,"NA","45","English","12","2","bucket","TRUE","1","914","positive","item"
"397",7,"NA","45","English","13","2","turtle","TRUE","1","1232","negative","alt"
"398",7,"NA","45","English","14","3","paintbrush","FALSE","1","881","positive","alt"
"399",7,"NA","45","English","15","0","horse","TRUE","1","585","positive","item"
"400",7,"NA","45","English","16","0","pig","TRUE","1","1112","negative","alt"
"401",7,"NA","45","English","17","1","cookie","FALSE","1","1470","negative","item"
"402",7,"NA","45","English","18","3","drum","TRUE","1","513","positive","item"
"403",7,"NA","45","English","19","0","car","FALSE","1","816","negative","item"
"404",7,"NA","45","English","20","2","pear","FALSE","1","745","negative","item"
"405",7,"NA","45","English","21","2","purse","FALSE","1","906","negative","item"
"406",7,"NA","45","English","22","3","table","FALSE","1","889","positive","alt"
"407",7,"NA","45","English","23","3","strawberry","FALSE","1","800","negative","item"
"408",7,"NA","45","English","24","1","duck","FALSE","1","784","negative","item"
"409",7,"NA","45","English","25","0","elephant","FALSE","0","913","negative","alt"
"410",7,"NA","45","English","26","0","butterfly","FALSE","1","778","positive","alt"
"411",7,"NA","45","English","27","1","bus","FALSE","1","897","positive","alt"
"412",7,"NA","45","English","28","2","toothbrush","FALSE","1","1081","negative","item"
"413",7,"NA","45","English","29","3","pencil","TRUE","1","1033","negative","alt"
"414",7,"NA","45","English","30","2","cow","FALSE","1","823","positive","alt"
"415",7,"NA","45","English","31","2","bike","TRUE","1","505","positive","item"
"416",7,"NA","45","English","32","3","tree","TRUE","1","512","positive","item"
"417",7,"NA","45","English","33","3","sock","FALSE","1","1961","negative","item"
"418",7,"NA","45","English","34","3","cat","FALSE","1","1409","negative","item"
"419",7,"NA","45","English","35","1","fork","TRUE","1","1177","negative","alt"
"420",7,"NA","45","English","36","3","donut","FALSE","1","1145","negative","item"
"421",7,"NA","45","English","37","2","bee","TRUE","1","1025","negative","alt"
"422",7,"NA","45","English","38","0","fence","TRUE","1","537","positive","item"
"423",7,"NA","45","English","39","2","crayon","TRUE","1","969","positive","item"
"424",7,"NA","45","English","40","1","key","TRUE","1","520","positive","item"
"425",7,"NA","45","English","41","3","plane","FALSE","1","958","positive","alt"
"426",7,"NA","45","English","42","1","fish","TRUE","1","465","positive","item"
"427",7,"NA","45","English","43","3","watch","FALSE","0","1514","negative","alt"
"428",7,"NA","45","English","44","2","guitar","TRUE","1","1216","negative","alt"
"429",7,"NA","45","English","45","0","tiger","FALSE","1","1322","negative","item"
"430",7,"NA","45","English","46","1","banana","TRUE","1","489","positive","item"
"431",7,"NA","45","English","47","3","lamp","TRUE","1","1360","negative","alt"
"432",7,"NA","45","English","48","2","hat","TRUE","1","1097","positive","item"
"433",7,"NA","45","English","49","3","cake","FALSE","1","1152","positive","alt"
"434",7,"NA","45","English","50","2","apple","FALSE","1","1568","negative","item"
"435",7,"NA","45","English","51","1","popsicle","TRUE","1","1801","negative","alt"
"436",7,"NA","45","English","52","1","giraffe","FALSE","1","898","positive","alt"
"437",7,"NA","45","English","53","0","shoe","TRUE","1","547","positive","item"
"438",7,"NA","45","English","54","1","bell","TRUE","1","977","negative","alt"
"439",7,"NA","45","English","55","1","carrot","FALSE","1","1185","positive","alt"
"440",7,"NA","45","English","56","1","chicken","TRUE","1","1082","negative","alt"
"441",7,"NA","45","English","57","0","frog","TRUE","1","513","positive","item"
"442",7,"NA","45","English","58","2","balloon","TRUE","1","840","negative","alt"
"443",7,"NA","45","English","59","1","train","FALSE","1","1394","negative","item"
"444",7,"NA","45","English","60","3","monkey","TRUE","1","537","positive","item"
"445",7,"NA","45","English","61","3","pretzel","TRUE","1","857","negative","alt"
"446",7,"NA","45","English","62","0","house","FALSE","1","1129","negative","item"
"447",7,"NA","45","English","63","0","penguin","FALSE","1","1050","positive","alt"
"448",7,"NA","45","English","64","1","clock","FALSE","1","840","positive","alt"
"449",8,"NA","65","English","1","1","shoe","TRUE","1","5675","negative","alt"
"450",8,"NA","65","English","2","0","cat","TRUE","1","1865","positive","item"
"451",8,"NA","65","English","3","2","bus","TRUE","1","1861","negative","alt"
"452",8,"NA","65","English","4","0","bucket","FALSE","1","2465","negative","item"
"453",8,"NA","65","English","5","0","flower","TRUE","1","1914","negative","alt"
"454",8,"NA","65","English","6","3","fence","FALSE","1","2906","positive","alt"
"455",8,"NA","65","English","7","3","elephant","TRUE","0","1615","positive","alt"
"456",8,"NA","65","English","8","3","dog","FALSE","1","4166","negative","item"
"457",8,"NA","65","English","9","1","table","TRUE","1","2442","negative","alt"
"458",8,"NA","65","English","10","3","toothbrush","TRUE","1","2057","negative","alt"
"459",8,"NA","65","English","11","1","strawberry","FALSE","1","2511","positive","alt"
"460",8,"NA","65","English","12","2","lamp","TRUE","0","1861","negative","item"
"461",8,"NA","65","English","13","2","pig","TRUE","1","1410","negative","alt"
"462",8,"NA","65","English","14","1","plane","FALSE","1","2109","positive","alt"
"463",8,"NA","65","English","15","2","balloon","TRUE","1","1882","positive","item"
"464",8,"NA","65","English","16","0","sheep","FALSE","1","2823","positive","alt"
"465",8,"NA","65","English","17","0","pear","TRUE","1","1375","positive","item"
"466",8,"NA","65","English","18","3","drum","TRUE","1","1544","negative","alt"
"467",8,"NA","65","English","19","0","butterfly","FALSE","0","1761","positive","item"
"468",8,"NA","65","English","20","1","banana","TRUE","1","1094","positive","item"
"469",8,"NA","65","English","21","0","paintbrush","TRUE","1","2294","negative","alt"
"470",8,"NA","65","English","22","1","spoon","FALSE","1","1742","positive","alt"
"471",8,"NA","65","English","23","1","phone","FALSE","1","3621","negative","item"
"472",8,"NA","65","English","24","0","chair","FALSE","1","2195","negative","item"
"473",8,"NA","65","English","25","1","bike","FALSE","1","1477","negative","item"
"474",8,"NA","65","English","26","3","fork","TRUE","1","1425","positive","item"
"475",8,"NA","65","English","27","3","mitten","TRUE","1","1766","negative","alt"
"476",8,"NA","65","English","28","3","cookie","FALSE","1","2126","negative","item"
"477",8,"NA","65","English","29","3","key","TRUE","1","1719","positive","item"
"478",8,"NA","65","English","30","0","bee","FALSE","1","1332","negative","item"
"479",8,"NA","65","English","31","1","cake","TRUE","1","1505","positive","item"
"480",8,"NA","65","English","32","0","popsicle","FALSE","1","2374","positive","alt"
"481",8,"NA","65","English","33","0","purse","TRUE","0","1175","positive","alt"
"482",8,"NA","65","English","34","2","chicken","FALSE","1","2636","negative","item"
"483",8,"NA","65","English","35","3","duck","FALSE","1","1967","negative","item"
"484",8,"NA","65","English","36","3","monkey","FALSE","1","1964","positive","alt"
"485",8,"NA","65","English","37","0","apple","TRUE","1","3587","positive","item"
"486",8,"NA","65","English","38","1","crayon","TRUE","1","1309","positive","item"
"487",8,"NA","65","English","39","1","turtle","TRUE","1","1894","negative","alt"
"488",8,"NA","65","English","40","1","frog","TRUE","1","1614","positive","item"
"489",8,"NA","65","English","41","3","watch","FALSE","1","1699","positive","alt"
"490",8,"NA","65","English","42","2","pencil","FALSE","0","2290","negative","alt"
"491",8,"NA","65","English","43","0","giraffe","FALSE","1","2296","positive","alt"
"492",8,"NA","65","English","44","3","clock","TRUE","1","1411","positive","item"
"493",8,"NA","65","English","45","3","sock","FALSE","1","1233","negative","item"
"494",8,"NA","65","English","46","3","horse","TRUE","1","2093","negative","alt"
"495",8,"NA","65","English","47","1","hat","FALSE","1","1478","negative","item"
"496",8,"NA","65","English","48","2","tree","TRUE","0","1264","negative","item"
"497",8,"NA","65","English","49","2","bell","FALSE","1","2101","positive","alt"
"498",8,"NA","65","English","50","2","fish","TRUE","1","1503","negative","alt"
"499",8,"NA","65","English","51","2","train","TRUE","1","2567","positive","item"
"500",8,"NA","65","English","52","2","carrot","FALSE","1","2721","positive","alt"
"501",8,"NA","65","English","53","3","goat","TRUE","1","1484","positive","item"
"502",8,"NA","65","English","54","1","car","FALSE","1","1645","positive","alt"
"503",8,"NA","65","English","55","0","plate","TRUE","0","1353","negative","item"
"504",8,"NA","65","English","56","0","guitar","TRUE","1","1926","negative","alt"
"505",8,"NA","65","English","57","2","donut","FALSE","1","1944","positive","alt"
"506",8,"NA","65","English","58","2","tiger","TRUE","1","1554","positive","item"
"507",8,"NA","65","English","59","0","penguin","TRUE","1","1747","negative","alt"
"508",8,"NA","65","English","60","1","pretzel","TRUE","1","1610","negative","alt"
"509",8,"NA","65","English","61","2","lion","FALSE","1","2250","negative","item"
"510",8,"NA","65","English","62","2","house","TRUE","1","2563","positive","item"
"511",8,"NA","65","English","63","1","shirt","FALSE","1","1998","negative","item"
"512",8,"NA","65","English","64","2","cow","FALSE","1","2039","positive","alt"
"513",9,"NA","45","English","1","1","shirt","TRUE","1","1853","negative","alt"
"514",9,"NA","45","English","2","2","table","TRUE","1","1232","negative","alt"
"515",9,"NA","45","English","3","0","banana","TRUE","1","1015","positive","item"
"516",9,"NA","45","English","4","3","plate","FALSE","1","1096","negative","item"
"517",9,"NA","45","English","5","1","donut","FALSE","1","1119","negative","item"
"518",9,"NA","45","English","6","1","bus","TRUE","1","1039","positive","item"
"519",9,"NA","45","English","7","1","key","FALSE","1","1031","positive","alt"
"520",9,"NA","45","English","8","3","fence","FALSE","1","1023","negative","item"
"521",9,"NA","45","English","9","1","plane","FALSE","1","918","positive","alt"
"522",9,"NA","45","English","10","2","mitten","TRUE","1","936","positive","item"
"523",9,"NA","45","English","11","1","pencil","TRUE","1","775","positive","item"
"524",9,"NA","45","English","12","0","giraffe","FALSE","0","855","negative","alt"
"525",9,"NA","45","English","13","1","chicken","FALSE","0","1509","negative","alt"
"526",9,"NA","45","English","14","1","lion","FALSE","1","1290","negative","item"
"527",9,"NA","45","English","15","2","cookie","TRUE","1","899","positive","item"
"528",9,"NA","45","English","16","3","watch","FALSE","1","1040","positive","alt"
"529",9,"NA","45","English","17","0","hat","FALSE","1","9543","positive","alt"
"530",9,"NA","45","English","18","3","butterfly","FALSE","1","1577","negative","item"
"531",9,"NA","45","English","19","3","flower","TRUE","1","1433","negative","alt"
"532",9,"NA","45","English","20","0","dog","TRUE","1","845","positive","item"
"533",9,"NA","45","English","21","3","car","FALSE","1","1061","negative","item"
"534",9,"NA","45","English","22","0","frog","FALSE","1","860","positive","alt"
"535",9,"NA","45","English","23","2","horse","TRUE","1","1004","positive","item"
"536",9,"NA","45","English","24","0","sock","FALSE","1","1061","negative","item"
"537",9,"NA","45","English","25","3","cow","TRUE","1","772","positive","item"
"538",9,"NA","45","English","26","2","toothbrush","FALSE","1","1125","positive","alt"
"539",9,"NA","45","English","27","1","train","TRUE","1","880","positive","item"
"540",9,"NA","45","English","28","2","pear","FALSE","1","7127","negative","item"
"541",9,"NA","45","English","29","2","monkey","FALSE","1","1438","negative","item"
"542",9,"NA","45","English","30","1","spoon","FALSE","1","968","positive","alt"
"543",9,"NA","45","English","31","2","paintbrush","TRUE","1","918","positive","item"
"544",9,"NA","45","English","32","0","goat","FALSE","1","1024","negative","item"
"545",9,"NA","45","English","33","3","duck","TRUE","1","1062","negative","alt"
"546",9,"NA","45","English","34","3","cake","TRUE","1","633","positive","item"
"547",9,"NA","45","English","35","2","fork","TRUE","1","1093","negative","alt"
"548",9,"NA","45","English","36","2","clock","FALSE","1","960","negative","item"
"549",9,"NA","45","English","37","2","guitar","TRUE","1","1232","negative","alt"
"550",9,"NA","45","English","38","3","crayon","TRUE","1","807","positive","item"
"551",9,"NA","45","English","39","3","chair","TRUE","1","734","positive","item"
"552",9,"NA","45","English","40","3","balloon","FALSE","1","920","positive","alt"
"553",9,"NA","45","English","41","0","tiger","FALSE","1","2252","negative","item"
"554",9,"NA","45","English","42","0","strawberry","TRUE","1","1264","negative","alt"
"555",9,"NA","45","English","43","3","popsicle","TRUE","1","1453","negative","alt"
"556",9,"NA","45","English","44","0","bee","TRUE","1","816","negative","alt"
"557",9,"NA","45","English","45","1","bike","FALSE","1","1165","positive","alt"
"558",9,"NA","45","English","46","0","drum","TRUE","1","847","positive","item"
"559",9,"NA","45","English","47","2","penguin","TRUE","1","1223","negative","alt"
"560",9,"NA","45","English","48","3","cat","FALSE","1","1152","positive","alt"
"561",9,"NA","45","English","49","0","fish","TRUE","1","943","negative","alt"
"562",9,"NA","45","English","50","1","house","TRUE","1","1328","negative","alt"
"563",9,"NA","45","English","51","0","carrot","TRUE","1","988","positive","item"
"564",9,"NA","45","English","52","3","shoe","TRUE","1","1456","negative","alt"
"565",9,"NA","45","English","53","3","pretzel","FALSE","1","1086","positive","alt"
"566",9,"NA","45","English","54","2","phone","FALSE","1","907","positive","alt"
"567",9,"NA","45","English","55","1","lamp","TRUE","1","990","negative","alt"
"568",9,"NA","45","English","56","1","bell","TRUE","1","1072","positive","item"
"569",9,"NA","45","English","57","2","elephant","FALSE","1","926","positive","alt"
"570",9,"NA","45","English","58","2","pig","FALSE","1","800","positive","alt"
"571",9,"NA","45","English","59","2","tree","FALSE","1","1520","negative","item"
"572",9,"NA","45","English","60","0","bucket","FALSE","1","1199","negative","item"
"573",9,"NA","45","English","61","0","purse","FALSE","1","1160","positive","alt"
"574",9,"NA","45","English","62","1","sheep","FALSE","1","815","negative","item"
"575",9,"NA","45","English","63","0","turtle","FALSE","1","971","positive","alt"
"576",9,"NA","45","English","64","1","apple","FALSE","1","921","negative","item"
"577",10,"NA","35","English","1","1","banana","FALSE","1","748","positive","alt"
"578",10,"NA","35","English","2","0","purse","TRUE","1","619","positive","item"
"579",10,"NA","35","English","3","1","chair","TRUE","1","744","positive","item"
"580",10,"NA","35","English","4","1","balloon","FALSE","1","547","positive","alt"
"581",10,"NA","35","English","5","3","fish","TRUE","1","1169","negative","alt"
"582",10,"NA","35","English","6","2","frog","TRUE","1","1239","negative","alt"
"583",10,"NA","35","English","7","2","bus","TRUE","1","1114","negative","alt"
"584",10,"NA","35","English","8","3","sock","TRUE","1","679","positive","item"
"585",10,"NA","35","English","9","1","monkey","TRUE","1","865","negative","alt"
"586",10,"NA","35","English","10","0","cake","FALSE","1","1044","negative","item"
"587",10,"NA","35","English","11","2","shirt","TRUE","1","1031","positive","item"
"588",10,"NA","35","English","12","3","mitten","FALSE","1","910","negative","item"
"589",10,"NA","35","English","13","3","bee","FALSE","1","1226","negative","item"
"590",10,"NA","35","English","14","2","car","FALSE","1","1360","negative","item"
"591",10,"NA","35","English","15","2","duck","FALSE","0","1314","negative","alt"
"592",10,"NA","35","English","16","0","key","FALSE","1","1405","negative","item"
"593",10,"NA","35","English","17","1","goat","TRUE","1","1529","negative","alt"
"594",10,"NA","35","English","18","0","train","TRUE","1","976","negative","alt"
"595",10,"NA","35","English","19","1","donut","FALSE","1","1552","negative","item"
"596",10,"NA","35","English","20","3","lamp","TRUE","1","1178","positive","item"
"597",10,"NA","35","English","21","0","cat","FALSE","1","924","positive","alt"
"598",10,"NA","35","English","22","1","tiger","TRUE","1","1302","positive","item"
"599",10,"NA","35","English","23","0","clock","TRUE","1","1135","negative","alt"
"600",10,"NA","35","English","24","2","pretzel","TRUE","1","891","positive","item"
"601",10,"NA","35","English","25","0","spoon","FALSE","0","1372","negative","alt"
"602",10,"NA","35","English","26","0","lion","FALSE","1","1416","negative","item"
"603",10,"NA","35","English","27","3","cookie","TRUE","1","1086","positive","item"
"604",10,"NA","35","English","28","3","elephant","FALSE","1","1020","negative","item"
"605",10,"NA","35","English","29","0","popsicle","TRUE","1","876","positive","item"
"606",10,"NA","35","English","30","2","sheep","TRUE","1","609","positive","item"
"607",10,"NA","35","English","31","3","drum","FALSE","1","877","positive","alt"
"608",10,"NA","35","English","32","1","cow","FALSE","1","2067","negative","item"
"609",10,"NA","35","English","33","2","butterfly","FALSE","1","1165","negative","item"
"610",10,"NA","35","English","34","3","plate","TRUE","1","1360","negative","alt"
"611",10,"NA","35","English","35","3","penguin","TRUE","1","1024","negative","alt"
"612",10,"NA","35","English","36","3","paintbrush","TRUE","1","1443","negative","alt"
"613",10,"NA","35","English","37","1","house","TRUE","1","1218","negative","alt"
"614",10,"NA","35","English","38","3","giraffe","TRUE","1","733","positive","item"
"615",10,"NA","35","English","39","3","pig","FALSE","1","1172","positive","alt"
"616",10,"NA","35","English","40","2","fence","FALSE","1","1144","positive","alt"
"617",10,"NA","35","English","41","2","crayon","FALSE","1","1003","positive","alt"
"618",10,"NA","35","English","42","0","pencil","FALSE","1","976","positive","alt"
"619",10,"NA","35","English","43","2","guitar","FALSE","1","1288","positive","alt"
"620",10,"NA","35","English","44","1","strawberry","TRUE","1","829","positive","item"
"621",10,"NA","35","English","45","0","turtle","TRUE","1","884","positive","item"
"622",10,"NA","35","English","46","3","shoe","FALSE","1","1036","positive","alt"
"623",10,"NA","35","English","47","1","chicken","FALSE","1","1395","negative","item"
"624",10,"NA","35","English","48","1","tree","FALSE","1","929","positive","alt"
"625",10,"NA","35","English","49","2","bell","TRUE","1","1376","negative","alt"
"626",10,"NA","35","English","50","1","horse","TRUE","1","826","positive","item"
"627",10,"NA","35","English","51","2","table","FALSE","1","685","positive","alt"
"628",10,"NA","35","English","52","0","bucket","TRUE","1","703","positive","item"
"629",10,"NA","35","English","53","2","apple","TRUE","1","1291","positive","item"
"630",10,"NA","35","English","54","0","watch","TRUE","1","1291","negative","alt"
"631",10,"NA","35","English","55","1","hat","FALSE","1","1214","negative","item"
"632",10,"NA","35","English","56","3","phone","FALSE","1","1037","positive","alt"
"633",10,"NA","35","English","57","2","toothbrush","FALSE","1","1227","negative","item"
"634",10,"NA","35","English","58","1","bike","TRUE","1","1226","negative","alt"
"635",10,"NA","35","English","59","0","pear","FALSE","1","1154","negative","item"
"636",10,"NA","35","English","60","3","plane","FALSE","1","1544","negative","item"
"637",10,"NA","35","English","61","0","flower","FALSE","1","956","positive","alt"
"638",10,"NA","35","English","62","2","carrot","FALSE","1","1125","negative","item"
"639",10,"NA","35","English","63","1","dog","FALSE","1","842","positive","alt"
"640",10,"NA","35","English","64","0","fork","FALSE","1","920","positive","alt"
"641",11,"NA","25","English","1","1","duck","FALSE","1","698","positive","alt"
"642",11,"NA","25","English","2","3","clock","FALSE","0","463","negative","alt"
"643",11,"NA","25","English","3","2","bell","TRUE","1","1174","positive","item"
"644",11,"NA","25","English","4","2","paintbrush","FALSE","1","726","negative","item"
"645",11,"NA","25","English","5","1","pear","FALSE","1","796","negative","item"
"646",11,"NA","25","English","6","0","tree","FALSE","1","1416","negative","item"
"647",11,"NA","25","English","7","0","guitar","FALSE","1","993","positive","alt"
"648",11,"NA","25","English","8","1","car","FALSE","1","965","negative","item"
"649",11,"NA","25","English","9","1","table","FALSE","1","893","negative","item"
"650",11,"NA","25","English","10","1","donut","FALSE","1","890","negative","item"
"651",11,"NA","25","English","11","3","bee","FALSE","1","977","positive","alt"
"652",11,"NA","25","English","12","2","lion","TRUE","1","1070","negative","alt"
"653",11,"NA","25","English","13","3","crayon","TRUE","1","623","positive","item"
"654",11,"NA","25","English","14","0","banana","TRUE","1","623","positive","item"
"655",11,"NA","25","English","15","3","pencil","FALSE","1","608","positive","alt"
"656",11,"NA","25","English","16","3","watch","TRUE","1","977","positive","item"
"657",11,"NA","25","English","17","0","bus","FALSE","1","756","negative","item"
"658",11,"NA","25","English","18","1","chair","FALSE","1","581","positive","alt"
"659",11,"NA","25","English","19","3","apple","FALSE","1","834","negative","item"
"660",11,"NA","25","English","20","3","bucket","TRUE","1","1033","negative","alt"
"661",11,"NA","25","English","21","1","train","TRUE","1","570","positive","item"
"662",11,"NA","25","English","22","3","carrot","FALSE","0","515","negative","alt"
"663",11,"NA","25","English","23","2","sheep","FALSE","1","583","negative","item"
"664",11,"NA","25","English","24","1","shirt","TRUE","1","685","negative","alt"
"665",11,"NA","25","English","25","0","cookie","TRUE","1","1028","negative","alt"
"666",11,"NA","25","English","26","2","bike","FALSE","1","1234","positive","alt"
"667",11,"NA","25","English","27","1","tiger","TRUE","1","955","negative","alt"
"668",11,"NA","25","English","28","0","butterfly","TRUE","0","756","positive","alt"
"669",11,"NA","25","English","29","2","giraffe","TRUE","1","805","positive","item"
"670",11,"NA","25","English","30","3","elephant","FALSE","1","1033","positive","alt"
"671",11,"NA","25","English","31","2","drum","TRUE","1","901","positive","item"
"672",11,"NA","25","English","32","2","goat","FALSE","1","649","positive","alt"
"673",11,"NA","25","English","33","0","fish","TRUE","1","454","positive","item"
"674",11,"NA","25","English","34","2","chicken","TRUE","1","600","negative","alt"
"675",11,"NA","25","English","35","1","balloon","TRUE","1","681","positive","item"
"676",11,"NA","25","English","36","1","strawberry","FALSE","1","606","positive","alt"
"677",11,"NA","25","English","37","1","dog","FALSE","1","689","positive","alt"
"678",11,"NA","25","English","38","0","spoon","TRUE","1","694","positive","item"
"679",11,"NA","25","English","39","1","hat","FALSE","0","559","negative","alt"
"680",11,"NA","25","English","40","2","horse","TRUE","1","710","negative","alt"
"681",11,"NA","25","English","41","0","turtle","FALSE","1","677","negative","item"
"682",11,"NA","25","English","42","0","house","FALSE","1","1031","negative","item"
"683",11,"NA","25","English","43","2","purse","FALSE","1","627","negative","item"
"684",11,"NA","25","English","44","0","pretzel","FALSE","1","1111","positive","alt"
"685",11,"NA","25","English","45","2","fence","FALSE","1","723","negative","item"
"686",11,"NA","25","English","46","3","frog","FALSE","1","654","negative","item"
"687",11,"NA","25","English","47","0","sock","TRUE","1","666","positive","item"
"688",11,"NA","25","English","48","0","cow","FALSE","1","832","positive","alt"
"689",11,"NA","25","English","49","3","phone","TRUE","1","407","positive","item"
"690",11,"NA","25","English","50","3","monkey","TRUE","1","855","negative","alt"
"691",11,"NA","25","English","51","2","toothbrush","FALSE","1","809","positive","alt"
"692",11,"NA","25","English","52","3","pig","FALSE","1","695","negative","item"
"693",11,"NA","25","English","53","1","flower","TRUE","1","1183","negative","alt"
"694",11,"NA","25","English","54","0","penguin","TRUE","1","718","negative","alt"
"695",11,"NA","25","English","55","0","shoe","TRUE","1","713","negative","alt"
"696",11,"NA","25","English","56","3","popsicle","TRUE","1","674","positive","item"
"697",11,"NA","25","English","57","2","cat","FALSE","1","655","positive","alt"
"698",11,"NA","25","English","58","2","lamp","TRUE","1","657","negative","alt"
"699",11,"NA","25","English","59","3","cake","FALSE","1","829","negative","item"
"700",11,"NA","25","English","60","2","plate","TRUE","1","1639","positive","item"
"701",11,"NA","25","English","61","1","key","TRUE","1","563","positive","item"
"702",11,"NA","25","English","62","3","plane","FALSE","1","827","positive","alt"
"703",11,"NA","25","English","63","0","fork","FALSE","0","564","negative","alt"
"704",11,"NA","25","English","64","1","mitten","TRUE","1","1270","positive","item"
"705",12,"NA","45","english","1","2","flower","TRUE","1","572","positive","item"
"706",12,"NA","45","english","2","2","fish","FALSE","0","656","negative","alt"
"707",12,"NA","45","english","3","3","lion","FALSE","1","891","positive","alt"
"708",12,"NA","45","english","4","3","cow","TRUE","1","836","negative","alt"
"709",12,"NA","45","english","5","1","mitten","TRUE","1","757","positive","item"
"710",12,"NA","45","english","6","2","popsicle","FALSE","1","1193","positive","alt"
"711",12,"NA","45","english","7","1","donut","FALSE","1","832","positive","alt"
"712",12,"NA","45","english","8","2","lamp","FALSE","1","1290","negative","item"
"713",12,"NA","45","english","9","1","sock","FALSE","1","817","positive","alt"
"714",12,"NA","45","english","10","1","goat","FALSE","1","1356","negative","item"
"715",12,"NA","45","english","11","3","guitar","TRUE","1","546","positive","item"
"716",12,"NA","45","english","12","1","key","FALSE","1","812","positive","alt"
"717",12,"NA","45","english","13","2","purse","TRUE","0","979","negative","item"
"718",12,"NA","45","english","14","0","shirt","FALSE","0","1200","negative","alt"
"719",12,"NA","45","english","15","1","pear","FALSE","1","1276","negative","item"
"720",12,"NA","45","english","16","0","tree","TRUE","1","1513","negative","alt"
"721",12,"NA","45","english","17","2","bus","TRUE","1","1032","negative","alt"
"722",12,"NA","45","english","18","2","horse","FALSE","1","886","positive","alt"
"723",12,"NA","45","english","19","1","watch","TRUE","1","418","positive","item"
"724",12,"NA","45","english","20","3","chair","TRUE","1","497","positive","item"
"725",12,"NA","45","english","21","0","giraffe","TRUE","1","536","positive","item"
"726",12,"NA","45","english","22","1","spoon","FALSE","0","925","negative","alt"
"727",12,"NA","45","english","23","3","drum","FALSE","1","747","positive","alt"
"728",12,"NA","45","english","24","0","turtle","FALSE","1","1172","negative","item"
"729",12,"NA","45","english","25","3","bee","FALSE","1","1378","negative","item"
"730",12,"NA","45","english","26","0","bell","TRUE","1","1027","negative","alt"
"731",12,"NA","45","english","27","3","monkey","TRUE","1","482","positive","item"
"732",12,"NA","45","english","28","1","fork","TRUE","1","813","positive","item"
"733",12,"NA","45","english","29","1","hat","TRUE","1","1081","negative","alt"
"734",12,"NA","45","english","30","1","train","TRUE","1","693","positive","item"
"735",12,"NA","45","english","31","0","strawberry","FALSE","1","591","positive","alt"
"736",12,"NA","45","english","32","2","fence","FALSE","1","961","positive","alt"
"737",12,"NA","45","english","33","2","pretzel","TRUE","1","1040","negative","alt"
"738",12,"NA","45","english","34","2","cat","FALSE","1","978","negative","item"
"739",12,"NA","45","english","35","0","apple","TRUE","1","734","positive","item"
"740",12,"NA","45","english","36","3","butterfly","FALSE","1","722","positive","alt"
"741",12,"NA","45","english","37","3","bucket","FALSE","1","810","negative","item"
"742",12,"NA","45","english","38","0","car","FALSE","1","640","positive","alt"
"743",12,"NA","45","english","39","3","penguin","FALSE","1","535","negative","item"
"744",12,"NA","45","english","40","0","pig","TRUE","1","740","positive","item"
"745",12,"NA","45","english","41","0","duck","FALSE","1","671","positive","alt"
"746",12,"NA","45","english","42","1","house","FALSE","1","692","positive","alt"
"747",12,"NA","45","english","43","0","crayon","FALSE","1","606","positive","alt"
"748",12,"NA","45","english","44","1","cookie","FALSE","0","544","negative","alt"
"749",12,"NA","45","english","45","3","table","FALSE","1","793","positive","alt"
"750",12,"NA","45","english","46","0","balloon","TRUE","1","925","negative","alt"
"751",12,"NA","45","english","47","3","cake","TRUE","1","828","negative","alt"
"752",12,"NA","45","english","48","3","pencil","FALSE","1","576","negative","item"
"753",12,"NA","45","english","49","0","chicken","FALSE","1","1018","negative","item"
"754",12,"NA","45","english","50","2","elephant","TRUE","1","551","positive","item"
"755",12,"NA","45","english","51","1","carrot","TRUE","1","1018","negative","alt"
"756",12,"NA","45","english","52","0","clock","FALSE","1","983","negative","item"
"757",12,"NA","45","english","53","3","toothbrush","FALSE","0","774","negative","alt"
"758",12,"NA","45","english","54","2","bike","TRUE","1","591","positive","item"
"759",12,"NA","45","english","55","3","dog","TRUE","1","770","negative","alt"
"760",12,"NA","45","english","56","3","phone","TRUE","1","737","positive","item"
"761",12,"NA","45","english","57","0","tiger","TRUE","1","514","positive","item"
"762",12,"NA","45","english","58","2","banana","FALSE","1","563","positive","alt"
"763",12,"NA","45","english","59","2","plate","TRUE","1","931","positive","item"
"764",12,"NA","45","english","60","1","sheep","FALSE","1","782","negative","item"
"765",12,"NA","45","english","61","2","shoe","TRUE","1","888","negative","alt"
"766",12,"NA","45","english","62","2","paintbrush","FALSE","1","889","negative","item"
"767",12,"NA","45","english","63","1","frog","FALSE","1","1142","negative","item"
"768",12,"NA","45","english","64","0","plane","FALSE","1","595","negative","item"
"769",13,"NA","45","English","1","2","cake","FALSE","1","725","positive","alt"
"770",13,"NA","45","English","2","0","shirt","TRUE","1","1911","negative","alt"
"771",13,"NA","45","English","3","0","elephant","FALSE","1","1132","positive","alt"
"772",13,"NA","45","English","4","3","car","FALSE","1","867","positive","alt"
"773",13,"NA","45","English","5","1","popsicle","TRUE","1","1204","negative","alt"
"774",13,"NA","45","English","6","1","hat","FALSE","1","1346","positive","alt"
"775",13,"NA","45","English","7","1","toothbrush","FALSE","1","1157","negative","item"
"776",13,"NA","45","English","8","3","horse","TRUE","1","1108","positive","item"
"777",13,"NA","45","English","9","3","frog","FALSE","1","678","positive","alt"
"778",13,"NA","45","English","10","2","monkey","FALSE","1","1064","negative","item"
"779",13,"NA","45","English","11","2","pear","TRUE","1","894","positive","item"
"780",13,"NA","45","English","12","3","carrot","TRUE","1","1133","negative","alt"
"781",13,"NA","45","English","13","3","pig","FALSE","1","919","negative","item"
"782",13,"NA","45","English","14","2","bee","FALSE","1","1008","positive","alt"
"783",13,"NA","45","English","15","1","cow","TRUE","1","794","positive","item"
"784",13,"NA","45","English","16","1","crayon","FALSE","1","951","negative","item"
"785",13,"NA","45","English","17","2","cookie","FALSE","1","728","negative","item"
"786",13,"NA","45","English","18","0","duck","TRUE","1","800","positive","item"
"787",13,"NA","45","English","19","2","plane","TRUE","1","1135","negative","alt"
"788",13,"NA","45","English","20","0","drum","FALSE","1","670","positive","alt"
"789",13,"NA","45","English","21","0","shoe","TRUE","1","634","positive","item"
"790",13,"NA","45","English","22","2","sheep","TRUE","1","997","negative","alt"
"791",13,"NA","45","English","23","0","plate","FALSE","1","1596","negative","item"
"792",13,"NA","45","English","24","1","flower","TRUE","1","1302","negative","alt"
"793",13,"NA","45","English","25","0","lamp","TRUE","1","856","negative","alt"
"794",13,"NA","45","English","26","1","chicken","FALSE","1","1066","positive","alt"
"795",13,"NA","45","English","27","1","train","TRUE","1","727","positive","item"
"796",13,"NA","45","English","28","3","paintbrush","TRUE","1","647","positive","item"
"797",13,"NA","45","English","29","0","table","TRUE","0","1719","negative","item"
"798",13,"NA","45","English","30","3","pencil","FALSE","1","1133","positive","alt"
"799",13,"NA","45","English","31","3","watch","TRUE","1","1035","negative","alt"
"800",13,"NA","45","English","32","1","tree","FALSE","0","791","negative","alt"
"801",13,"NA","45","English","33","2","fence","FALSE","1","989","positive","alt"
"802",13,"NA","45","English","34","3","giraffe","FALSE","1","942","positive","alt"
"803",13,"NA","45","English","35","2","pretzel","FALSE","1","820","negative","item"
"804",13,"NA","45","English","36","1","donut","FALSE","1","1589","positive","alt"
"805",13,"NA","45","English","37","2","mitten","TRUE","1","1393","negative","alt"
"806",13,"NA","45","English","38","2","clock","FALSE","1","1072","positive","alt"
"807",13,"NA","45","English","39","1","bell","FALSE","1","945","negative","item"
"808",13,"NA","45","English","40","0","goat","FALSE","1","803","negative","item"
"809",13,"NA","45","English","41","2","penguin","TRUE","1","1283","negative","alt"
"810",13,"NA","45","English","42","3","bike","TRUE","1","1256","positive","item"
"811",13,"NA","45","English","43","3","strawberry","FALSE","1","894","negative","item"
"812",13,"NA","45","English","44","1","fork","FALSE","1","7028","positive","alt"
"813",13,"NA","45","English","45","1","banana","TRUE","1","1470","positive","item"
"814",13,"NA","45","English","46","2","apple","TRUE","1","1031","positive","item"
"815",13,"NA","45","English","47","0","turtle","TRUE","1","1146","negative","alt"
"816",13,"NA","45","English","48","3","bus","FALSE","1","966","negative","item"
"817",13,"NA","45","English","49","2","cat","TRUE","1","631","positive","item"
"818",13,"NA","45","English","50","2","house","FALSE","1","795","negative","item"
"819",13,"NA","45","English","51","1","dog","FALSE","1","1151","negative","item"
"820",13,"NA","45","English","52","1","guitar","FALSE","0","1023","negative","alt"
"821",13,"NA","45","English","53","0","tiger","FALSE","1","1296","positive","alt"
"822",13,"NA","45","English","54","3","chair","TRUE","1","1094","negative","alt"
"823",13,"NA","45","English","55","1","lion","TRUE","1","935","positive","item"
"824",13,"NA","45","English","56","3","balloon","TRUE","1","1028","negative","alt"
"825",13,"NA","45","English","57","0","fish","TRUE","1","868","positive","item"
"826",13,"NA","45","English","58","3","key","FALSE","1","2246","negative","item"
"827",13,"NA","45","English","59","2","phone","TRUE","1","670","positive","item"
"828",13,"NA","45","English","60","0","bucket","TRUE","1","1651","negative","alt"
"829",13,"NA","45","English","61","0","purse","TRUE","1","597","positive","item"
"830",13,"NA","45","English","62","0","spoon","FALSE","1","822","negative","item"
"831",13,"NA","45","English","63","3","butterfly","TRUE","1","485","positive","item"
"832",13,"NA","45","English","64","0","sock","FALSE","1","958","positive","alt"
"833",14,"NA","55","English","1","1","horse","TRUE","1","1533","positive","item"
"834",14,"NA","55","English","2","0","plane","FALSE","1","1649","negative","item"
"835",14,"NA","55","English","3","1","strawberry","TRUE","1","889","positive","item"
"836",14,"NA","55","English","4","2","tree","TRUE","1","1914","positive","item"
"837",14,"NA","55","English","5","2","plate","TRUE","1","4319","negative","alt"
"838",14,"NA","55","English","6","2","turtle","FALSE","1","1654","positive","alt"
"839",14,"NA","55","English","7","0","fish","FALSE","1","1206","positive","alt"
"840",14,"NA","55","English","8","1","bucket","TRUE","0","1229","positive","alt"
"841",14,"NA","55","English","9","0","drum","TRUE","0","3070","negative","item"
"842",14,"NA","55","English","10","3","purse","TRUE","1","2513","negative","alt"
"843",14,"NA","55","English","11","2","frog","FALSE","1","3046","negative","item"
"844",14,"NA","55","English","12","0","lion","FALSE","1","2353","negative","item"
"845",14,"NA","55","English","13","3","phone","TRUE","1","1533","positive","item"
"846",14,"NA","55","English","14","0","lamp","TRUE","1","2312","negative","alt"
"847",14,"NA","55","English","15","3","sock","TRUE","1","999","positive","item"
"848",14,"NA","55","English","16","2","flower","FALSE","1","2659","negative","item"
"849",14,"NA","55","English","17","1","shirt","FALSE","1","2055","positive","alt"
"850",14,"NA","55","English","18","2","house","TRUE","1","806","positive","item"
"851",14,"NA","55","English","19","2","cake","FALSE","1","1562","positive","alt"
"852",14,"NA","55","English","20","3","donut","FALSE","1","1415","positive","alt"
"853",14,"NA","55","English","21","1","butterfly","FALSE","1","1428","positive","alt"
"854",14,"NA","55","English","22","1","chicken","FALSE","1","2156","negative","item"
"855",14,"NA","55","English","23","3","sheep","FALSE","1","1785","positive","alt"
"856",14,"NA","55","English","24","1","train","TRUE","1","2875","negative","alt"
"857",14,"NA","55","English","25","2","elephant","TRUE","1","1176","positive","item"
"858",14,"NA","55","English","26","3","watch","FALSE","1","1927","negative","item"
"859",14,"NA","55","English","27","0","cookie","TRUE","1","2297","negative","alt"
"860",14,"NA","55","English","28","3","bee","TRUE","1","966","positive","item"
"861",14,"NA","55","English","29","2","clock","FALSE","1","1370","positive","alt"
"862",14,"NA","55","English","30","3","paintbrush","TRUE","1","1489","negative","alt"
"863",14,"NA","55","English","31","0","duck","FALSE","1","1011","negative","item"
"864",14,"NA","55","English","32","0","car","TRUE","1","840","positive","item"
"865",14,"NA","55","English","33","2","pear","FALSE","1","2490","negative","item"
"866",14,"NA","55","English","34","0","giraffe","TRUE","1","822","positive","item"
"867",14,"NA","55","English","35","0","popsicle","FALSE","1","1016","positive","alt"
"868",14,"NA","55","English","36","1","table","TRUE","1","2169","negative","alt"
"869",14,"NA","55","English","37","2","hat","TRUE","1","1961","negative","alt"
"870",14,"NA","55","English","38","1","penguin","TRUE","1","892","positive","item"
"871",14,"NA","55","English","39","1","toothbrush","FALSE","1","1800","negative","item"
"872",14,"NA","55","English","40","0","key","TRUE","1","820","positive","item"
"873",14,"NA","55","English","41","1","mitten","TRUE","1","783","positive","item"
"874",14,"NA","55","English","42","2","monkey","FALSE","1","1843","negative","item"
"875",14,"NA","55","English","43","0","carrot","TRUE","1","2468","negative","alt"
"876",14,"NA","55","English","44","1","goat","TRUE","1","2284","negative","alt"
"877",14,"NA","55","English","45","2","balloon","TRUE","1","1123","negative","alt"
"878",14,"NA","55","English","46","3","shoe","FALSE","1","1609","negative","item"
"879",14,"NA","55","English","47","1","apple","FALSE","1","1600","negative","item"
"880",14,"NA","55","English","48","0","cow","FALSE","1","1635","positive","alt"
"881",14,"NA","55","English","49","1","spoon","TRUE","1","2220","negative","alt"
"882",14,"NA","55","English","50","3","cat","FALSE","1","947","positive","alt"
"883",14,"NA","55","English","51","3","crayon","TRUE","1","1109","positive","item"
"884",14,"NA","55","English","52","0","fence","FALSE","1","955","positive","alt"
"885",14,"NA","55","English","53","2","fork","FALSE","1","1181","positive","alt"
"886",14,"NA","55","English","54","0","pretzel","TRUE","1","765","positive","item"
"887",14,"NA","55","English","55","3","bike","TRUE","1","1286","negative","alt"
"888",14,"NA","55","English","56","0","chair","TRUE","1","1099","negative","alt"
"889",14,"NA","55","English","57","1","pig","FALSE","1","1408","positive","alt"
"890",14,"NA","55","English","58","3","pencil","FALSE","1","1809","negative","item"
"891",14,"NA","55","English","59","3","bus","TRUE","1","1730","negative","alt"
"892",14,"NA","55","English","60","2","dog","TRUE","1","1381","negative","alt"
"893",14,"NA","55","English","61","3","bell","FALSE","1","1461","positive","alt"
"894",14,"NA","55","English","62","2","banana","TRUE","1","685","positive","item"
"895",14,"NA","55","English","63","1","tiger","FALSE","1","3495","negative","item"
"896",14,"NA","55","English","64","3","guitar","FALSE","1","1214","negative","item"
"897",15,"NA","45","English","1","1","house","FALSE","1","1670","positive","alt"
"898",15,"NA","45","English","2","1","fish","FALSE","1","204","negative","item"
"899",15,"NA","45","English","3","2","fence","TRUE","1","1190","positive","item"
"900",15,"NA","45","English","4","1","apple","TRUE","0","714","negative","item"
"901",15,"NA","45","English","5","0","dog","TRUE","1","724","positive","item"
"902",15,"NA","45","English","6","1","crayon","FALSE","1","817","positive","alt"
"903",15,"NA","45","English","7","3","elephant","TRUE","1","788","positive","item"
"904",15,"NA","45","English","8","3","cookie","FALSE","1","738","positive","alt"
"905",15,"NA","45","English","9","2","lion","TRUE","0","852","negative","item"
"906",15,"NA","45","English","10","1","flower","FALSE","1","1497","positive","alt"
"907",15,"NA","45","English","11","3","toothbrush","FALSE","0","1397","negative","alt"
"908",15,"NA","45","English","12","0","paintbrush","TRUE","1","756","positive","item"
"909",15,"NA","45","English","13","1","frog","FALSE","1","1703","negative","item"
"910",15,"NA","45","English","14","2","bucket","FALSE","1","1471","negative","item"
"911",15,"NA","45","English","15","0","fork","FALSE","1","1383","positive","alt"
"912",15,"NA","45","English","16","0","car","TRUE","1","1614","negative","alt"
"913",15,"NA","45","English","17","1","balloon","TRUE","1","1204","positive","item"
"914",15,"NA","45","English","18","3","strawberry","FALSE","1","859","negative","item"
"915",15,"NA","45","English","19","0","duck","FALSE","1","1598","negative","item"
"916",15,"NA","45","English","20","3","shirt","TRUE","1","1435","negative","alt"
"917",15,"NA","45","English","21","2","carrot","TRUE","1","1407","positive","item"
"918",15,"NA","45","English","22","2","shoe","FALSE","1","1296","negative","item"
"919",15,"NA","45","English","23","3","goat","FALSE","1","1830","negative","item"
"920",15,"NA","45","English","24","3","popsicle","TRUE","1","1415","positive","item"
"921",15,"NA","45","English","25","3","mitten","FALSE","1","1056","negative","item"
"922",15,"NA","45","English","26","2","hat","TRUE","1","1127","positive","item"
"923",15,"NA","45","English","27","0","sheep","TRUE","1","1331","negative","alt"
"924",15,"NA","45","English","28","1","key","TRUE","1","1591","negative","alt"
"925",15,"NA","45","English","29","0","bell","FALSE","1","1391","positive","alt"
"926",15,"NA","45","English","30","3","giraffe","FALSE","1","1897","positive","alt"
"927",15,"NA","45","English","31","0","monkey","FALSE","1","1251","positive","alt"
"928",15,"NA","45","English","32","3","pretzel","TRUE","1","2035","negative","alt"
"929",15,"NA","45","English","33","3","sock","TRUE","1","1442","positive","item"
"930",15,"NA","45","English","34","1","turtle","TRUE","1","1080","negative","alt"
"931",15,"NA","45","English","35","1","bus","TRUE","1","1352","positive","item"
"932",15,"NA","45","English","36","0","purse","FALSE","1","1903","negative","item"
"933",15,"NA","45","English","37","1","train","TRUE","1","1070","positive","item"
"934",15,"NA","45","English","38","0","penguin","FALSE","1","1599","negative","item"
"935",15,"NA","45","English","39","2","pear","FALSE","1","2161","positive","alt"
"936",15,"NA","45","English","40","3","phone","FALSE","1","1405","negative","item"
"937",15,"NA","45","English","41","1","watch","TRUE","1","1095","positive","item"
"938",15,"NA","45","English","42","2","tiger","FALSE","1","3234","positive","alt"
"939",15,"NA","45","English","43","3","cow","FALSE","1","2096","positive","alt"
"940",15,"NA","45","English","44","2","table","FALSE","1","1475","negative","item"
"941",15,"NA","45","English","45","2","pencil","FALSE","1","1376","positive","alt"
"942",15,"NA","45","English","46","0","pig","TRUE","1","1744","negative","alt"
"943",15,"NA","45","English","47","3","drum","TRUE","1","1312","negative","alt"
"944",15,"NA","45","English","48","1","guitar","TRUE","1","1291","negative","alt"
"945",15,"NA","45","English","49","2","spoon","FALSE","1","1375","positive","alt"
"946",15,"NA","45","English","50","2","bee","TRUE","1","1383","positive","item"
"947",15,"NA","45","English","51","1","plane","FALSE","1","908","positive","alt"
"948",15,"NA","45","English","52","3","tree","TRUE","1","1545","positive","item"
"949",15,"NA","45","English","53","1","chair","TRUE","1","1821","negative","alt"
"950",15,"NA","45","English","54","3","horse","FALSE","1","1246","positive","alt"
"951",15,"NA","45","English","55","0","cat","TRUE","1","1808","positive","item"
"952",15,"NA","45","English","56","2","butterfly","TRUE","1","2238","negative","alt"
"953",15,"NA","45","English","57","0","donut","TRUE","1","1095","positive","item"
"954",15,"NA","45","English","58","0","lamp","TRUE","1","1005","negative","alt"
"955",15,"NA","45","English","59","2","chicken","TRUE","1","1537","negative","alt"
"956",15,"NA","45","English","60","0","bike","FALSE","1","1006","negative","item"
"957",15,"NA","45","English","61","2","cake","TRUE","1","1242","negative","alt"
"958",15,"NA","45","English","62","0","plate","FALSE","1","1394","positive","alt"
"959",15,"NA","45","English","63","2","clock","TRUE","1","1025","negative","alt"
"960",15,"NA","45","English","64","1","banana","FALSE","1","916","negative","item"
"961",16,"NA","45","English","1","0","fence","TRUE","1","1022","positive","item"
"962",16,"NA","45","English","2","1","guitar","TRUE","1","1184","negative","alt"
"963",16,"NA","45","English","3","1","house","FALSE","1","1482","positive","alt"
"964",16,"NA","45","English","4","3","balloon","FALSE","1","1215","positive","alt"
"965",16,"NA","45","English","5","2","toothbrush","TRUE","1","1363","negative","alt"
"966",16,"NA","45","English","6","3","pretzel","TRUE","1","643","positive","item"
"967",16,"NA","45","English","7","0","sock","TRUE","1","1139","negative","alt"
"968",16,"NA","45","English","8","2","phone","TRUE","1","999","positive","item"
"969",16,"NA","45","English","9","2","bee","FALSE","1","1071","negative","item"
"970",16,"NA","45","English","10","3","lamp","FALSE","1","921","negative","item"
"971",16,"NA","45","English","11","2","plane","FALSE","1","862","positive","alt"
"972",16,"NA","45","English","12","1","bucket","TRUE","1","941","positive","item"
"973",16,"NA","45","English","13","1","watch","TRUE","1","1174","negative","alt"
"974",16,"NA","45","English","14","0","turtle","FALSE","1","1119","negative","item"
"975",16,"NA","45","English","15","2","penguin","TRUE","1","1062","negative","alt"
"976",16,"NA","45","English","16","3","table","FALSE","1","1072","negative","item"
"977",16,"NA","45","English","17","1","drum","TRUE","1","1037","positive","item"
"978",16,"NA","45","English","18","0","pig","FALSE","1","1020","negative","item"
"979",16,"NA","45","English","19","2","butterfly","FALSE","1","964","positive","alt"
"980",16,"NA","45","English","20","2","goat","TRUE","1","1239","negative","alt"
"981",16,"NA","45","English","21","1","sheep","FALSE","1","812","positive","alt"
"982",16,"NA","45","English","22","2","donut","FALSE","1","912","negative","item"
"983",16,"NA","45","English","23","0","purse","TRUE","1","1187","negative","alt"
"984",16,"NA","45","English","24","3","cake","FALSE","1","841","negative","item"
"985",16,"NA","45","English","25","0","pencil","TRUE","1","1110","positive","item"
"986",16,"NA","45","English","26","0","cow","FALSE","1","667","positive","alt"
"987",16,"NA","45","English","27","0","hat","FALSE","1","737","positive","alt"
"988",16,"NA","45","English","28","3","banana","TRUE","1","824","positive","item"
"989",16,"NA","45","English","29","2","tree","TRUE","1","1516","negative","alt"
"990",16,"NA","45","English","30","3","flower","FALSE","1","1026","positive","alt"
"991",16,"NA","45","English","31","3","bike","TRUE","1","1146","positive","item"
"992",16,"NA","45","English","32","0","fish","FALSE","1","931","positive","alt"
"993",16,"NA","45","English","33","1","bell","TRUE","1","1068","negative","alt"
"994",16,"NA","45","English","34","0","key","TRUE","1","1386","positive","item"
"995",16,"NA","45","English","35","1","lion","TRUE","1","1263","negative","alt"
"996",16,"NA","45","English","36","0","popsicle","FALSE","1","836","positive","alt"
"997",16,"NA","45","English","37","3","tiger","TRUE","1","1421","negative","alt"
"998",16,"NA","45","English","38","1","clock","TRUE","1","923","positive","item"
"999",16,"NA","45","English","39","1","apple","TRUE","1","964","positive","item"
"1000",16,"NA","45","English","40","1","train","FALSE","1","1021","negative","item"
"1001",16,"NA","45","English","41","0","dog","FALSE","1","915","negative","item"
"1002",16,"NA","45","English","42","0","elephant","TRUE","1","1024","positive","item"
"1003",16,"NA","45","English","43","3","giraffe","FALSE","1","784","negative","item"
"1004",16,"NA","45","English","44","2","plate","FALSE","1","890","negative","item"
"1005",16,"NA","45","English","45","3","crayon","TRUE","1","1063","negative","alt"
"1006",16,"NA","45","English","46","1","frog","FALSE","1","1952","positive","alt"
"1007",16,"NA","45","English","47","2","spoon","FALSE","1","937","negative","item"
"1008",16,"NA","45","English","48","1","monkey","FALSE","1","1621","negative","item"
"1009",16,"NA","45","English","49","1","bus","FALSE","1","1040","negative","item"
"1010",16,"NA","45","English","50","0","duck","TRUE","1","1163","negative","alt"
"1011",16,"NA","45","English","51","0","mitten","TRUE","1","1823","negative","alt"
"1012",16,"NA","45","English","52","2","cookie","TRUE","1","1145","positive","item"
"1013",16,"NA","45","English","53","2","strawberry","FALSE","1","1269","positive","alt"
"1014",16,"NA","45","English","54","0","chicken","FALSE","1","1377","negative","item"
"1015",16,"NA","45","English","55","3","cat","FALSE","1","1082","positive","alt"
"1016",16,"NA","45","English","56","1","carrot","FALSE","1","988","positive","alt"
"1017",16,"NA","45","English","57","2","paintbrush","TRUE","1","1205","positive","item"
"1018",16,"NA","45","English","58","2","chair","FALSE","1","1006","positive","alt"
"1019",16,"NA","45","English","59","2","car","TRUE","1","1064","positive","item"
"1020",16,"NA","45","English","60","1","shoe","FALSE","1","967","negative","item"
"1021",16,"NA","45","English","61","3","pear","TRUE","1","718","positive","item"
"1022",16,"NA","45","English","62","3","fork","FALSE","0","1618","negative","alt"
"1023",16,"NA","45","English","63","3","horse","FALSE","1","1703","positive","alt"
"1024",16,"NA","45","English","64","3","shirt","TRUE","1","1693","negative","alt"
"1025",17,"NA","35","English","1","1","cat","FALSE","1","1492","positive","alt"
"1026",17,"NA","35","English","2","1","bee","FALSE","1","2212","negative","item"
"1027",17,"NA","35","English","3","1","tree","TRUE","1","777","positive","item"
"1028",17,"NA","35","English","4","3","frog","FALSE","1","807","negative","item"
"1029",17,"NA","35","English","5","0","table","FALSE","1","1023","positive","alt"
"1030",17,"NA","35","English","6","3","flower","FALSE","1","698","negative","item"
"1031",17,"NA","35","English","7","0","watch","FALSE","1","1312","negative","item"
"1032",17,"NA","35","English","8","2","car","FALSE","1","875","negative","item"
"1033",17,"NA","35","English","9","2","bucket","TRUE","1","923","positive","item"
"1034",17,"NA","35","English","10","0","strawberry","TRUE","1","961","positive","item"
"1035",17,"NA","35","English","11","2","balloon","TRUE","1","1600","negative","alt"
"1036",17,"NA","35","English","12","3","banana","FALSE","1","879","negative","item"
"1037",17,"NA","35","English","13","1","hat","TRUE","1","1500","negative","alt"
"1038",17,"NA","35","English","14","3","sheep","TRUE","1","771","positive","item"
"1039",17,"NA","35","English","15","3","carrot","FALSE","1","1199","positive","alt"
"1040",17,"NA","35","English","16","1","house","FALSE","1","2150","negative","item"
"1041",17,"NA","35","English","17","0","lion","TRUE","1","1258","negative","alt"
"1042",17,"NA","35","English","18","2","guitar","FALSE","1","1758","negative","item"
"1043",17,"NA","35","English","19","0","chair","FALSE","1","1200","negative","item"
"1044",17,"NA","35","English","20","1","cake","TRUE","1","1020","negative","alt"
"1045",17,"NA","35","English","21","3","tiger","FALSE","1","1102","positive","alt"
"1046",17,"NA","35","English","22","0","pretzel","TRUE","1","809","positive","item"
"1047",17,"NA","35","English","23","3","cookie","FALSE","1","1619","positive","alt"
"1048",17,"NA","35","English","24","2","paintbrush","TRUE","1","1641","negative","alt"
"1049",17,"NA","35","English","25","2","drum","FALSE","1","1560","positive","alt"
"1050",17,"NA","35","English","26","0","fence","TRUE","1","1327","negative","alt"
"1051",17,"NA","35","English","27","2","mitten","FALSE","1","1856","negative","item"
"1052",17,"NA","35","English","28","1","key","TRUE","1","1003","negative","alt"
"1053",17,"NA","35","English","29","2","dog","TRUE","1","1193","negative","alt"
"1054",17,"NA","35","English","30","3","clock","TRUE","1","1486","positive","item"
"1055",17,"NA","35","English","31","1","cow","FALSE","1","962","positive","alt"
"1056",17,"NA","35","English","32","0","bus","FALSE","1","2735","negative","item"
"1057",17,"NA","35","English","33","0","chicken","FALSE","1","916","negative","item"
"1058",17,"NA","35","English","34","1","elephant","TRUE","1","1110","negative","alt"
"1059",17,"NA","35","English","35","1","bike","FALSE","1","1081","negative","item"
"1060",17,"NA","35","English","36","3","spoon","TRUE","1","1362","negative","alt"
"1061",17,"NA","35","English","37","3","sock","TRUE","1","1478","negative","alt"
"1062",17,"NA","35","English","38","1","train","FALSE","1","1156","negative","item"
"1063",17,"NA","35","English","39","1","plane","FALSE","1","1193","positive","alt"
"1064",17,"NA","35","English","40","0","apple","TRUE","1","1286","negative","alt"
"1065",17,"NA","35","English","41","2","bell","FALSE","1","1011","positive","alt"
"1066",17,"NA","35","English","42","3","goat","TRUE","1","866","positive","item"
"1067",17,"NA","35","English","43","3","fish","FALSE","1","1182","positive","alt"
"1068",17,"NA","35","English","44","2","donut","FALSE","1","1509","negative","item"
"1069",17,"NA","35","English","45","2","plate","TRUE","1","1176","positive","item"
"1070",17,"NA","35","English","46","0","popsicle","TRUE","1","1350","negative","alt"
"1071",17,"NA","35","English","47","2","giraffe","FALSE","1","1051","positive","alt"
"1072",17,"NA","35","English","48","2","pencil","FALSE","1","1111","positive","alt"
"1073",17,"NA","35","English","49","1","duck","TRUE","1","746","positive","item"
"1074",17,"NA","35","English","50","0","purse","FALSE","1","874","positive","alt"
"1075",17,"NA","35","English","51","0","monkey","FALSE","1","1061","positive","alt"
"1076",17,"NA","35","English","52","2","lamp","TRUE","1","1651","positive","item"
"1077",17,"NA","35","English","53","3","fork","TRUE","1","1666","negative","alt"
"1078",17,"NA","35","English","54","3","butterfly","TRUE","1","1020","positive","item"
"1079",17,"NA","35","English","55","1","shoe","TRUE","1","1129","positive","item"
"1080",17,"NA","35","English","56","3","penguin","FALSE","1","1078","negative","item"
"1081",17,"NA","35","English","57","1","horse","FALSE","1","1276","positive","alt"
"1082",17,"NA","35","English","58","2","pear","TRUE","1","892","positive","item"
"1083",17,"NA","35","English","59","0","crayon","TRUE","1","1687","positive","item"
"1084",17,"NA","35","English","60","0","turtle","TRUE","1","893","positive","item"
"1085",17,"NA","35","English","61","2","toothbrush","TRUE","1","1041","negative","alt"
"1086",17,"NA","35","English","62","3","phone","TRUE","1","981","negative","alt"
"1087",17,"NA","35","English","63","0","shirt","FALSE","1","1010","positive","alt"
"1088",17,"NA","35","English","64","1","pig","TRUE","1","829","positive","item"
"1089",18,"NA","65","English","1","2","frog","FALSE","1","1688","negative","item"
"1090",18,"NA","65","English","2","0","table","FALSE","1","1342","positive","alt"
"1091",18,"NA","65","English","3","1","plate","TRUE","1","1118","positive","item"
"1092",18,"NA","65","English","4","3","plane","FALSE","1","1081","positive","alt"
"1093",18,"NA","65","English","5","3","tiger","TRUE","1","1331","positive","item"
"1094",18,"NA","65","English","6","0","carrot","FALSE","0","2145","negative","alt"
"1095",18,"NA","65","English","7","3","bee","FALSE","1","1611","negative","item"
"1096",18,"NA","65","English","8","2","bike","FALSE","1","1606","negative","item"
"1097",18,"NA","65","English","9","0","pencil","FALSE","1","1358","positive","alt"
"1098",18,"NA","65","English","10","1","donut","FALSE","1","1670","positive","alt"
"1099",18,"NA","65","English","11","0","bucket","FALSE","1","1053","positive","alt"
"1100",18,"NA","65","English","12","0","lion","FALSE","0","1739","negative","alt"
"1101",18,"NA","65","English","13","2","tree","FALSE","0","1975","negative","alt"
"1102",18,"NA","65","English","14","0","sheep","TRUE","1","1688","negative","alt"
"1103",18,"NA","65","English","15","0","fork","FALSE","1","1637","negative","item"
"1104",18,"NA","65","English","16","2","monkey","FALSE","0","1572","negative","alt"
"1105",18,"NA","65","English","17","2","drum","TRUE","1","1104","positive","item"
"1106",18,"NA","65","English","18","1","sock","FALSE","1","1267","negative","item"
"1107",18,"NA","65","English","19","2","dog","TRUE","1","1020","positive","item"
"1108",18,"NA","65","English","20","3","watch","TRUE","0","1416","positive","alt"
"1109",18,"NA","65","English","21","2","strawberry","FALSE","1","1718","positive","alt"
"1110",18,"NA","65","English","22","1","balloon","FALSE","1","1361","positive","alt"
"1111",18,"NA","65","English","23","0","guitar","TRUE","1","1063","positive","item"
"1112",18,"NA","65","English","24","0","shirt","FALSE","1","2355","negative","item"
"1113",18,"NA","65","English","25","3","car","TRUE","1","1952","negative","alt"
"1114",18,"NA","65","English","26","2","cookie","TRUE","1","1156","positive","item"
"1115",18,"NA","65","English","27","2","fence","TRUE","1","1949","negative","alt"
"1116",18,"NA","65","English","28","3","clock","TRUE","1","1265","positive","item"
"1117",18,"NA","65","English","29","3","cat","TRUE","1","1944","negative","alt"
"1118",18,"NA","65","English","30","2","pear","TRUE","0","1560","negative","item"
"1119",18,"NA","65","English","31","0","phone","FALSE","1","1662","negative","item"
"1120",18,"NA","65","English","32","3","giraffe","FALSE","1","1609","negative","item"
"1121",18,"NA","65","English","33","2","bus","FALSE","1","1496","positive","alt"
"1122",18,"NA","65","English","34","3","cow","TRUE","1","1487","negative","alt"
"1123",18,"NA","65","English","35","1","goat","FALSE","1","2143","negative","item"
"1124",18,"NA","65","English","36","1","cake","FALSE","1","1641","negative","item"
"1125",18,"NA","65","English","37","0","horse","TRUE","1","1305","negative","alt"
"1126",18,"NA","65","English","38","1","flower","FALSE","1","1433","positive","alt"
"1127",18,"NA","65","English","39","1","butterfly","TRUE","1","1644","negative","alt"
"1128",18,"NA","65","English","40","3","shoe","TRUE","1","1732","negative","alt"
"1129",18,"NA","65","English","41","0","turtle","TRUE","1","1243","positive","item"
"1130",18,"NA","65","English","42","1","spoon","TRUE","1","1062","positive","item"
"1131",18,"NA","65","English","43","3","toothbrush","FALSE","1","2233","negative","item"
"1132",18,"NA","65","English","44","1","key","TRUE","1","1714","negative","alt"
"1133",18,"NA","65","English","45","3","chicken","FALSE","1","1497","positive","alt"
"1134",18,"NA","65","English","46","1","penguin","TRUE","1","1824","negative","alt"
"1135",18,"NA","65","English","47","1","bell","FALSE","1","1368","negative","item"
"1136",18,"NA","65","English","48","1","hat","TRUE","1","1117","positive","item"
"1137",18,"NA","65","English","49","2","popsicle","TRUE","1","2740","negative","alt"
"1138",18,"NA","65","English","50","2","banana","FALSE","1","1669","positive","alt"
"1139",18,"NA","65","English","51","2","train","FALSE","1","1669","negative","item"
"1140",18,"NA","65","English","52","2","duck","FALSE","1","1368","positive","alt"
"1141",18,"NA","65","English","53","0","chair","TRUE","1","1158","positive","item"
"1142",18,"NA","65","English","54","1","pretzel","TRUE","1","2558","negative","alt"
"1143",18,"NA","65","English","55","3","mitten","FALSE","1","1322","positive","alt"
"1144",18,"NA","65","English","56","2","house","TRUE","1","1274","positive","item"
"1145",18,"NA","65","English","57","3","fish","FALSE","1","1683","negative","item"
"1146",18,"NA","65","English","58","1","pig","TRUE","1","1032","positive","item"
"1147",18,"NA","65","English","59","3","apple","TRUE","1","1115","positive","item"
"1148",18,"NA","65","English","60","0","elephant","FALSE","1","1705","positive","alt"
"1149",18,"NA","65","English","61","0","paintbrush","TRUE","1","1923","positive","item"
"1150",18,"NA","65","English","62","1","crayon","FALSE","1","1230","positive","alt"
"1151",18,"NA","65","English","63","3","lamp","TRUE","1","870","positive","item"
"1152",18,"NA","65","English","64","0","purse","FALSE","1","1461","negative","item"
"1153",19,"NA","55","English","1","2","strawberry","FALSE","1","1343","positive","alt"
"1154",19,"NA","55","English","2","1","pencil","TRUE","1","603","positive","item"
"1155",19,"NA","55","English","3","0","plane","FALSE","1","897","positive","alt"
"1156",19,"NA","55","English","4","2","crayon","FALSE","1","1997","negative","item"
"1157",19,"NA","55","English","5","2","bee","FALSE","1","1181","positive","alt"
"1158",19,"NA","55","English","6","1","lamp","FALSE","1","834","negative","item"
"1159",19,"NA","55","English","7","0","cow","TRUE","1","2165","negative","alt"
"1160",19,"NA","55","English","8","0","giraffe","FALSE","1","1746","negative","item"
"1161",19,"NA","55","English","9","0","frog","TRUE","1","1239","positive","item"
"1162",19,"NA","55","English","10","2","shirt","TRUE","1","1444","negative","alt"
"1163",19,"NA","55","English","11","0","cookie","FALSE","1","1097","positive","alt"
"1164",19,"NA","55","English","12","1","key","TRUE","1","1068","positive","item"
"1165",19,"NA","55","English","13","2","bucket","TRUE","1","1580","negative","alt"
"1166",19,"NA","55","English","14","1","bike","FALSE","1","1422","positive","alt"
"1167",19,"NA","55","English","15","0","train","FALSE","1","1585","negative","item"
"1168",19,"NA","55","English","16","2","house","FALSE","1","1114","negative","item"
"1169",19,"NA","55","English","17","0","purse","TRUE","1","1517","positive","item"
"1170",19,"NA","55","English","18","0","penguin","TRUE","1","1092","positive","item"
"1171",19,"NA","55","English","19","1","bus","FALSE","1","1280","negative","item"
"1172",19,"NA","55","English","20","3","turtle","TRUE","1","1330","positive","item"
"1173",19,"NA","55","English","21","3","bell","FALSE","1","904","positive","alt"
"1174",19,"NA","55","English","22","3","spoon","FALSE","1","1338","positive","alt"
"1175",19,"NA","55","English","23","2","pretzel","FALSE","1","1035","negative","item"
"1176",19,"NA","55","English","24","1","toothbrush","FALSE","1","1304","positive","alt"
"1177",19,"NA","55","English","25","0","duck","FALSE","1","1562","negative","item"
"1178",19,"NA","55","English","26","3","apple","FALSE","1","1885","negative","item"
"1179",19,"NA","55","English","27","2","fence","FALSE","1","1068","positive","alt"
"1180",19,"NA","55","English","28","1","chair","TRUE","1","1348","negative","alt"
"1181",19,"NA","55","English","29","3","monkey","FALSE","1","1432","negative","item"
"1182",19,"NA","55","English","30","1","cat","TRUE","1","2542","negative","alt"
"1183",19,"NA","55","English","31","2","clock","TRUE","1","1181","positive","item"
"1184",19,"NA","55","English","32","3","carrot","TRUE","1","924","positive","item"
"1185",19,"NA","55","English","33","3","fish","TRUE","1","1273","negative","alt"
"1186",19,"NA","55","English","34","2","table","TRUE","1","1256","positive","item"
"1187",19,"NA","55","English","35","1","hat","FALSE","1","1222","negative","item"
"1188",19,"NA","55","English","36","0","horse","TRUE","1","1490","positive","item"
"1189",19,"NA","55","English","37","3","watch","TRUE","1","1212","negative","alt"
"1190",19,"NA","55","English","38","3","paintbrush","TRUE","1","906","positive","item"
"1191",19,"NA","55","English","39","3","tree","TRUE","1","1188","negative","alt"
"1192",19,"NA","55","English","40","3","chicken","TRUE","1","1449","positive","item"
"1193",19,"NA","55","English","41","3","pear","FALSE","1","1258","negative","item"
"1194",19,"NA","55","English","42","1","flower","TRUE","1","1146","negative","alt"
"1195",19,"NA","55","English","43","1","guitar","FALSE","1","1258","positive","alt"
"1196",19,"NA","55","English","44","2","elephant","TRUE","1","1108","negative","alt"
"1197",19,"NA","55","English","45","2","butterfly","TRUE","1","860","positive","item"
"1198",19,"NA","55","English","46","0","goat","FALSE","1","939","positive","alt"
"1199",19,"NA","55","English","47","3","drum","FALSE","1","938","negative","item"
"1200",19,"NA","55","English","48","3","mitten","FALSE","1","1215","positive","alt"
"1201",19,"NA","55","English","49","1","donut","FALSE","1","982","negative","item"
"1202",19,"NA","55","English","50","3","sock","FALSE","1","1041","positive","alt"
"1203",19,"NA","55","English","51","1","phone","FALSE","1","1084","positive","alt"
"1204",19,"NA","55","English","52","2","popsicle","TRUE","1","1166","negative","alt"
"1205",19,"NA","55","English","53","0","sheep","TRUE","1","1602","negative","alt"
"1206",19,"NA","55","English","54","2","pig","FALSE","1","1256","positive","alt"
"1207",19,"NA","55","English","55","0","car","FALSE","1","1075","negative","item"
"1208",19,"NA","55","English","56","3","cake","TRUE","1","1921","negative","alt"
"1209",19,"NA","55","English","57","2","banana","TRUE","1","878","positive","item"
"1210",19,"NA","55","English","58","1","lion","TRUE","1","611","positive","item"
"1211",19,"NA","55","English","59","1","plate","TRUE","1","1514","negative","alt"
"1212",19,"NA","55","English","60","2","dog","FALSE","1","1062","negative","item"
"1213",19,"NA","55","English","61","1","tiger","TRUE","1","1215","positive","item"
"1214",19,"NA","55","English","62","0","fork","FALSE","1","853","positive","alt"
"1215",19,"NA","55","English","63","0","balloon","TRUE","1","1367","negative","alt"
"1216",19,"NA","55","English","64","0","shoe","TRUE","1","1096","negative","alt"
"1217",20,"NA","55","English","1","1","hat","TRUE","1","2445","positive","item"
"1218",20,"NA","55","English","2","3","plane","FALSE","1","1401","positive","alt"
"1219",20,"NA","55","English","3","0","cat","FALSE","1","2753","negative","item"
"1220",20,"NA","55","English","4","0","cookie","FALSE","1","2417","positive","alt"
"1221",20,"NA","55","English","5","2","donut","TRUE","0","1049","negative","item"
"1222",20,"NA","55","English","6","2","monkey","FALSE","1","1601","negative","item"
"1223",20,"NA","55","English","7","2","phone","FALSE","1","1267","negative","item"
"1224",20,"NA","55","English","8","0","bike","TRUE","1","993","positive","item"
"1225",20,"NA","55","English","9","2","butterfly","TRUE","1","1010","positive","item"
