,subid,gender,age,language,trial.num,context.condition,item,response,correct,rt,text.condition,image.condition
5633,c100,Decline,25,English,1,0,keys,FALSE,0,2584,negative,nothing
5634,c100,Decline,25,English,2,0,forks,TRUE,1,1769,negative,nothing
5635,c100,Decline,25,English,3,3,cars,TRUE,1,1835,positive,item
5636,c100,Decline,25,English,4,2,ice cream cones,FALSE,1,1112,positive,nothing
5637,c100,Decline,25,English,5,0,lollipops,TRUE,1,881,positive,item
5638,c100,Decline,25,English,6,3,pencils,FALSE,1,2185,positive,nothing
5639,c100,Decline,25,English,7,3,crayons,TRUE,1,3283,negative,nothing
5640,c100,Decline,25,English,8,0,donuts,TRUE,0,778,positive,nothing
5641,c100,Decline,25,English,9,3,rainboots,FALSE,1,777,positive,nothing
5642,c100,Decline,25,English,10,0,mittens,TRUE,0,851,negative,item
5643,c100,Decline,25,English,11,2,cookies,TRUE,1,571,positive,item
5644,c100,Decline,25,English,12,3,apples,FALSE,1,671,negative,item
5645,c100,Decline,25,English,13,1,kites,FALSE,1,841,negative,item
5646,c100,Decline,25,English,14,3,flowers,FALSE,0,1767,negative,nothing
5647,c100,Decline,25,English,15,2,umbrellas,FALSE,1,993,negative,item
5648,c100,Decline,25,English,16,1,daisies,TRUE,1,952,positive,item
5649,c100,Decline,25,English,17,3,cakes,TRUE,1,419,positive,item
5650,c100,Decline,25,English,18,2,balloons,TRUE,1,1984,negative,nothing
5651,c100,Decline,25,English,19,1,buckets,FALSE,1,5120,negative,item
5652,c100,Decline,25,English,20,2,cats,TRUE,1,1334,negative,nothing
5653,c100,Decline,25,English,21,2,fish,TRUE,0,1092,negative,item
5654,c100,Decline,25,English,22,2,bows,FALSE,1,2006,positive,nothing
5655,c100,Decline,25,English,23,1,presents,FALSE,0,1434,negative,nothing
5656,c100,Decline,25,English,24,1,shovels,FALSE,0,1354,negative,nothing
5657,c100,Decline,25,English,25,3,guitars,FALSE,1,3005,negative,item
5658,c100,Decline,25,English,26,2,phones,TRUE,1,878,positive,item
5659,c100,Decline,25,English,27,0,scissors,TRUE,1,843,positive,item
5660,c100,Decline,25,English,28,1,dogs,FALSE,1,1048,positive,nothing
5661,c100,Decline,25,English,29,1,carrots,FALSE,1,1511,positive,nothing
5662,c100,Decline,25,English,30,0,plants,FALSE,1,1297,negative,item
5663,c100,Decline,25,English,31,1,purses,TRUE,1,1191,positive,item
5664,c100,Decline,25,English,32,0,bananas,FALSE,1,2100,positive,nothing
65,c222,F,45,English,1,2,bananas,TRUE,1,2568,positive,item
66,c222,F,45,English,2,2,flowers,FALSE,1,3081,negative,item
67,c222,F,45,English,3,1,donuts,TRUE,1,1752,positive,item
68,c222,F,45,English,4,1,plants,FALSE,1,1414,positive,nothing
69,c222,F,45,English,5,0,shovels,FALSE,1,1849,positive,nothing
70,c222,F,45,English,6,0,kites,FALSE,1,1859,positive,nothing
71,c222,F,45,English,7,3,cars,FALSE,1,2022,negative,item
72,c222,F,45,English,8,3,fish,TRUE,1,971,positive,item
73,c222,F,45,English,9,3,mittens,FALSE,1,1437,negative,item
74,c222,F,45,English,10,3,lollipops,FALSE,1,1158,positive,nothing
75,c222,F,45,English,11,2,carrots,TRUE,1,1384,negative,nothing
76,c222,F,45,English,12,2,cakes,FALSE,1,1244,negative,item
77,c222,F,45,English,13,0,dogs,TRUE,1,1873,negative,nothing
78,c222,F,45,English,14,3,keys,FALSE,1,1091,positive,nothing
79,c222,F,45,English,15,2,apples,TRUE,1,1435,positive,item
80,c222,F,45,English,16,0,cookies,TRUE,1,1722,positive,item
81,c222,F,45,English,17,1,buckets,FALSE,0,1814,positive,item
82,c222,F,45,English,18,0,purses,FALSE,1,2027,negative,item
83,c222,F,45,English,19,3,balloons,TRUE,1,1335,negative,nothing
84,c222,F,45,English,20,0,pencils,TRUE,1,1224,positive,item
85,c222,F,45,English,21,2,bows,FALSE,1,2469,positive,nothing
86,c222,F,45,English,22,0,scissors,FALSE,1,1301,negative,item
87,c222,F,45,English,23,1,forks,TRUE,1,1610,negative,nothing
88,c222,F,45,English,24,0,guitars,TRUE,1,2241,negative,nothing
89,c222,F,45,English,25,2,phones,FALSE,1,1384,positive,nothing
90,c222,F,45,English,26,1,umbrellas,FALSE,1,1580,negative,item
91,c222,F,45,English,27,1,crayons,TRUE,1,1641,negative,nothing
92,c222,F,45,English,28,1,daisies,FALSE,1,1511,negative,item
93,c222,F,45,English,29,3,cats,TRUE,1,1726,negative,nothing
94,c222,F,45,English,30,3,ice cream cones,TRUE,1,1968,positive,item
95,c222,F,45,English,31,2,rainboots,TRUE,1,1718,negative,nothing
96,c222,F,45,English,32,1,presents,FALSE,1,1654,positive,nothing
161,c104,F,55,English,1,3,carrots,TRUE,1,1840,positive,item
162,c104,F,55,English,2,0,bananas,FALSE,1,1147,negative,item
163,c104,F,55,English,3,3,shovels,FALSE,1,1122,negative,item
164,c104,F,55,English,4,3,phones,FALSE,1,1029,positive,nothing
165,c104,F,55,English,5,1,scissors,FALSE,1,1077,negative,item
166,c104,F,55,English,6,2,donuts,FALSE,1,660,negative,item
167,c104,F,55,English,7,0,mittens,FALSE,1,1466,positive,nothing
168,c104,F,55,English,8,1,crayons,TRUE,1,1368,negative,nothing
169,c104,F,55,English,9,0,cookies,FALSE,1,789,negative,item
170,c104,F,55,English,10,0,forks,TRUE,1,682,positive,item
171,c104,F,55,English,11,2,buckets,FALSE,1,1152,positive,nothing
172,c104,F,55,English,12,0,flowers,FALSE,1,1006,positive,nothing
173,c104,F,55,English,13,1,cats,FALSE,1,850,negative,item
174,c104,F,55,English,14,1,guitars,FALSE,1,882,positive,nothing
175,c104,F,55,English,15,1,apples,FALSE,1,976,positive,nothing
176,c104,F,55,English,16,0,bows,FALSE,0,1349,negative,nothing
177,c104,F,55,English,17,3,plants,TRUE,1,733,positive,item
178,c104,F,55,English,18,1,daisies,TRUE,1,607,positive,item
179,c104,F,55,English,19,2,rainboots,TRUE,1,714,positive,item
180,c104,F,55,English,20,3,keys,FALSE,1,1836,negative,item
181,c104,F,55,English,21,2,umbrellas,FALSE,1,1054,positive,nothing
182,c104,F,55,English,22,0,cars,TRUE,1,2292,negative,nothing
183,c104,F,55,English,23,2,fish,TRUE,1,673,positive,item
184,c104,F,55,English,24,3,lollipops,TRUE,1,1176,negative,nothing
185,c104,F,55,English,25,2,presents,FALSE,1,830,negative,item
186,c104,F,55,English,26,1,dogs,TRUE,1,797,positive,item
187,c104,F,55,English,27,3,kites,FALSE,1,821,positive,nothing
188,c104,F,55,English,28,1,balloons,TRUE,1,909,negative,nothing
189,c104,F,55,English,29,2,cakes,FALSE,0,995,negative,nothing
190,c104,F,55,English,30,2,pencils,TRUE,1,1017,negative,nothing
191,c104,F,55,English,31,0,ice cream cones,TRUE,1,886,positive,item
192,c104,F,55,English,32,3,purses,TRUE,1,1013,negative,nothing
193,c227,F,45,english,1,0,phones,FALSE,1,1240,negative,item
194,c227,F,45,english,2,3,keys,TRUE,1,1033,negative,nothing
195,c227,F,45,english,3,0,cars,TRUE,1,888,positive,item
196,c227,F,45,english,4,2,cakes,TRUE,1,1043,positive,item
197,c227,F,45,english,5,1,mittens,FALSE,1,826,positive,nothing
198,c227,F,45,english,6,1,fish,FALSE,1,801,positive,nothing
199,c227,F,45,english,7,3,shovels,FALSE,1,1035,positive,nothing
200,c227,F,45,english,8,1,cats,FALSE,1,1130,negative,item
201,c227,F,45,english,9,0,purses,TRUE,1,730,positive,item
202,c227,F,45,english,10,3,apples,FALSE,1,1028,negative,item
203,c227,F,45,english,11,0,bows,TRUE,1,2715,negative,nothing
204,c227,F,45,english,12,2,cookies,FALSE,1,1370,positive,nothing
205,c227,F,45,english,13,2,rainboots,FALSE,1,1235,negative,item
206,c227,F,45,english,14,3,umbrellas,TRUE,1,1210,negative,nothing
207,c227,F,45,english,15,1,pencils,TRUE,1,1178,negative,nothing
208,c227,F,45,english,16,0,dogs,FALSE,1,1435,positive,nothing
209,c227,F,45,english,17,0,donuts,FALSE,0,1241,negative,nothing
210,c227,F,45,english,18,2,balloons,FALSE,1,1442,positive,nothing
211,c227,F,45,english,19,1,lollipops,TRUE,1,955,positive,item
212,c227,F,45,english,20,2,guitars,FALSE,0,938,negative,nothing
213,c227,F,45,english,21,3,buckets,TRUE,1,1403,positive,item
214,c227,F,45,english,22,1,daisies,FALSE,1,1180,negative,item
215,c227,F,45,english,23,3,scissors,TRUE,1,1072,positive,item
216,c227,F,45,english,24,0,carrots,FALSE,1,972,negative,item
217,c227,F,45,english,25,2,bananas,TRUE,1,1324,negative,nothing
218,c227,F,45,english,26,3,plants,TRUE,0,1418,positive,nothing
219,c227,F,45,english,27,1,presents,TRUE,1,1163,positive,item
220,c227,F,45,english,28,2,forks,TRUE,1,1266,positive,item
221,c227,F,45,english,29,2,ice cream cones,FALSE,1,851,negative,item
222,c227,F,45,english,30,3,flowers,FALSE,1,2545,negative,item
223,c227,F,45,english,31,1,kites,TRUE,1,1523,negative,nothing
224,c227,F,45,english,32,0,crayons,FALSE,1,1315,positive,nothing
225,c123,F,35,English,1,3,keys,FALSE,1,1140,negative,item
226,c123,F,35,English,2,1,daisies,TRUE,1,879,negative,nothing
227,c123,F,35,English,3,2,ice cream cones,TRUE,1,896,negative,nothing
228,c123,F,35,English,4,2,kites,TRUE,1,672,positive,item
229,c123,F,35,English,5,1,fish,FALSE,1,657,negative,item
230,c123,F,35,English,6,3,forks,TRUE,1,761,negative,nothing
231,c123,F,35,English,7,1,donuts,TRUE,1,761,positive,item
232,c123,F,35,English,8,0,cakes,FALSE,1,929,positive,nothing
233,c123,F,35,English,9,2,flowers,TRUE,1,617,positive,item
234,c123,F,35,English,10,3,bows,TRUE,1,766,positive,item
235,c123,F,35,English,11,0,umbrellas,FALSE,1,786,negative,item
236,c123,F,35,English,12,0,dogs,TRUE,1,519,positive,item
237,c123,F,35,English,13,0,presents,TRUE,1,880,negative,nothing
238,c123,F,35,English,14,3,scissors,TRUE,1,728,positive,item
239,c123,F,35,English,15,2,pencils,FALSE,1,784,positive,nothing
240,c123,F,35,English,16,2,cats,FALSE,1,730,positive,nothing
241,c123,F,35,English,17,0,balloons,FALSE,1,1005,positive,nothing
242,c123,F,35,English,18,1,mittens,TRUE,1,912,negative,nothing
243,c123,F,35,English,19,3,cookies,FALSE,1,688,positive,nothing
244,c123,F,35,English,20,1,shovels,FALSE,1,1022,positive,nothing
245,c123,F,35,English,21,2,plants,TRUE,1,801,negative,nothing
246,c123,F,35,English,22,0,purses,FALSE,1,721,negative,item
247,c123,F,35,English,23,1,rainboots,FALSE,1,769,negative,item
248,c123,F,35,English,24,2,bananas,FALSE,1,754,negative,item
249,c123,F,35,English,25,0,apples,TRUE,1,521,positive,item
250,c123,F,35,English,26,1,guitars,FALSE,1,802,positive,nothing
251,c123,F,35,English,27,3,crayons,FALSE,1,769,negative,item
252,c123,F,35,English,28,3,lollipops,FALSE,1,754,positive,nothing
253,c123,F,35,English,29,1,phones,TRUE,1,514,positive,item
254,c123,F,35,English,30,3,buckets,FALSE,0,977,negative,nothing
255,c123,F,35,English,31,0,cars,TRUE,1,871,negative,nothing
256,c123,F,35,English,32,2,carrots,FALSE,1,609,negative,item
321,c200,F,25,English,1,3,plants,FALSE,1,2366,negative,item
322,c200,F,25,English,2,0,kites,TRUE,1,1375,positive,item
323,c200,F,25,English,3,0,presents,FALSE,1,1066,negative,item
324,c200,F,25,English,4,1,bows,FALSE,1,1486,positive,nothing
325,c200,F,25,English,5,1,balloons,FALSE,1,1456,negative,item
326,c200,F,25,English,6,0,rainboots,TRUE,1,1514,negative,nothing
327,c200,F,25,English,7,3,flowers,FALSE,1,3258,positive,nothing
328,c200,F,25,English,8,2,fish,FALSE,1,1313,positive,nothing
329,c200,F,25,English,9,0,ice cream cones,TRUE,1,1220,negative,nothing
330,c200,F,25,English,10,3,crayons,TRUE,1,1132,positive,item
331,c200,F,25,English,11,2,cats,FALSE,1,914,positive,nothing
332,c200,F,25,English,12,1,cookies,TRUE,1,788,positive,item
333,c200,F,25,English,13,0,purses,FALSE,1,1529,positive,nothing
334,c200,F,25,English,14,0,mittens,TRUE,1,853,positive,item
335,c200,F,25,English,15,1,carrots,TRUE,1,1970,negative,nothing
336,c200,F,25,English,16,3,dogs,FALSE,1,1071,negative,item
337,c200,F,25,English,17,1,daisies,FALSE,1,1117,positive,nothing
338,c200,F,25,English,18,0,forks,FALSE,1,1859,positive,nothing
339,c200,F,25,English,19,2,pencils,TRUE,1,1077,negative,nothing
340,c200,F,25,English,20,0,umbrellas,FALSE,1,792,negative,item
341,c200,F,25,English,21,1,scissors,TRUE,1,1071,negative,nothing
342,c200,F,25,English,22,3,phones,TRUE,1,1242,positive,item
343,c200,F,25,English,23,2,cakes,TRUE,1,946,positive,item
344,c200,F,25,English,24,2,buckets,FALSE,1,901,negative,item
345,c200,F,25,English,25,1,lollipops,FALSE,1,813,negative,item
346,c200,F,25,English,26,3,keys,TRUE,1,1271,negative,nothing
347,c200,F,25,English,27,2,cars,TRUE,1,1006,negative,nothing
348,c200,F,25,English,28,2,apples,FALSE,1,1208,negative,item
349,c200,F,25,English,29,1,bananas,TRUE,1,690,positive,item
350,c200,F,25,English,30,3,shovels,FALSE,1,1189,positive,nothing
351,c200,F,25,English,31,3,donuts,TRUE,1,1501,negative,nothing
352,c200,F,25,English,32,2,guitars,TRUE,1,1096,positive,item
417,c112,F,65,emglish,1,0,fish,TRUE,1,2723,negative,nothing
418,c112,F,65,emglish,2,2,kites,TRUE,1,2674,negative,nothing
419,c112,F,65,emglish,3,3,cars,TRUE,1,1329,positive,item
420,c112,F,65,emglish,4,2,cats,TRUE,1,1465,positive,item
421,c112,F,65,emglish,5,0,daisies,FALSE,1,1647,positive,nothing
422,c112,F,65,emglish,6,1,shovels,TRUE,1,1006,positive,item
423,c112,F,65,emglish,7,1,scissors,FALSE,1,1071,positive,nothing
424,c112,F,65,emglish,8,1,presents,TRUE,0,1912,negative,item
425,c112,F,65,emglish,9,3,plants,FALSE,1,2397,positive,nothing
426,c112,F,65,emglish,10,1,rainboots,TRUE,1,2537,negative,nothing
427,c112,F,65,emglish,11,3,mittens,TRUE,1,1736,positive,item
428,c112,F,65,emglish,12,2,balloons,TRUE,1,2065,negative,nothing
429,c112,F,65,emglish,13,0,lollipops,FALSE,1,1285,negative,item
430,c112,F,65,emglish,14,0,keys,TRUE,0,1269,positive,nothing
431,c112,F,65,emglish,15,2,cookies,FALSE,1,1206,positive,nothing
432,c112,F,65,emglish,16,0,phones,FALSE,1,1499,negative,item
433,c112,F,65,emglish,17,0,bananas,TRUE,1,1006,positive,item
434,c112,F,65,emglish,18,2,guitars,FALSE,1,1279,negative,item
435,c112,F,65,emglish,19,2,pencils,FALSE,1,1396,positive,nothing
436,c112,F,65,emglish,20,2,cakes,FALSE,0,1145,positive,item
437,c112,F,65,emglish,21,3,forks,FALSE,1,2564,negative,item
438,c112,F,65,emglish,22,3,purses,TRUE,1,2071,negative,nothing
439,c112,F,65,emglish,23,1,umbrellas,FALSE,1,2158,positive,nothing
440,c112,F,65,emglish,24,3,carrots,FALSE,1,2452,negative,item
441,c112,F,65,emglish,25,0,buckets,TRUE,1,1085,positive,item
442,c112,F,65,emglish,26,3,apples,FALSE,1,1143,positive,nothing
443,c112,F,65,emglish,27,0,dogs,TRUE,1,3696,negative,nothing
444,c112,F,65,emglish,28,1,donuts,TRUE,1,1987,negative,nothing
445,c112,F,65,emglish,29,1,crayons,FALSE,1,1496,negative,item
446,c112,F,65,emglish,30,2,bows,FALSE,1,2644,negative,item
447,c112,F,65,emglish,31,3,ice cream cones,TRUE,1,1635,negative,nothing
448,c112,F,65,emglish,32,1,flowers,TRUE,1,1475,positive,item
449,c247,F,35,English,1,2,purses,TRUE,1,2806,positive,item
450,c247,F,35,English,2,0,kites,FALSE,1,1935,negative,item
451,c247,F,35,English,3,1,ice cream cones,FALSE,1,1241,positive,nothing
452,c247,F,35,English,4,0,presents,TRUE,1,1298,negative,nothing
453,c247,F,35,English,5,0,daisies,FALSE,1,943,positive,nothing
454,c247,F,35,English,6,2,crayons,TRUE,1,1128,positive,item
455,c247,F,35,English,7,0,keys,TRUE,1,961,positive,item
456,c247,F,35,English,8,0,buckets,FALSE,1,872,negative,item
457,c247,F,35,English,9,3,cakes,FALSE,1,847,positive,nothing
458,c247,F,35,English,10,2,balloons,FALSE,1,773,negative,item
459,c247,F,35,English,11,3,lollipops,TRUE,1,839,positive,item
460,c247,F,35,English,12,1,scissors,TRUE,1,615,positive,item
461,c247,F,35,English,13,3,mittens,TRUE,1,897,positive,item
462,c247,F,35,English,14,3,fish,FALSE,1,806,negative,item
463,c247,F,35,English,15,2,pencils,FALSE,1,919,positive,nothing
464,c247,F,35,English,16,0,donuts,TRUE,1,1257,negative,nothing
465,c247,F,35,English,17,3,guitars,FALSE,1,869,negative,item
466,c247,F,35,English,18,3,shovels,TRUE,1,858,negative,nothing
467,c247,F,35,English,19,3,forks,TRUE,1,949,negative,nothing
468,c247,F,35,English,20,2,plants,FALSE,1,931,negative,item
469,c247,F,35,English,21,1,rainboots,FALSE,1,1119,negative,item
470,c247,F,35,English,22,2,cats,TRUE,1,1041,negative,nothing
471,c247,F,35,English,23,1,dogs,TRUE,1,865,negative,nothing
472,c247,F,35,English,24,1,carrots,TRUE,1,1223,negative,nothing
473,c247,F,35,English,25,0,phones,FALSE,1,2098,positive,nothing
474,c247,F,35,English,26,1,flowers,FALSE,1,960,positive,nothing
475,c247,F,35,English,27,1,bows,TRUE,1,1192,positive,item
476,c247,F,35,English,28,2,cars,FALSE,1,1032,positive,nothing
477,c247,F,35,English,29,0,umbrellas,TRUE,1,898,positive,item
478,c247,F,35,English,30,2,cookies,TRUE,1,888,negative,nothing
479,c247,F,35,English,31,3,apples,FALSE,1,805,positive,nothing
480,c247,F,35,English,32,1,bananas,FALSE,1,1383,negative,item
545,c166,F,25,English,1,2,apples,FALSE,1,839,negative,item
546,c166,F,25,English,2,2,cars,TRUE,1,794,negative,nothing
547,c166,F,25,English,3,1,bananas,FALSE,0,592,negative,nothing
548,c166,F,25,English,4,0,mittens,TRUE,0,1033,negative,item
549,c166,F,25,English,5,3,buckets,TRUE,1,1611,positive,item
550,c166,F,25,English,6,1,forks,TRUE,1,871,positive,item
551,c166,F,25,English,7,1,keys,FALSE,1,796,negative,item
552,c166,F,25,English,8,1,cakes,FALSE,1,1100,positive,nothing
553,c166,F,25,English,9,3,cookies,TRUE,1,1110,negative,nothing
554,c166,F,25,English,10,0,scissors,TRUE,1,1178,positive,item
555,c166,F,25,English,11,2,phones,FALSE,1,872,positive,nothing
556,c166,F,25,English,12,0,purses,FALSE,1,1160,positive,nothing
557,c166,F,25,English,13,1,fish,TRUE,1,735,positive,item
558,c166,F,25,English,14,3,cats,FALSE,1,826,negative,item
559,c166,F,25,English,15,0,lollipops,FALSE,1,951,positive,nothing
560,c166,F,25,English,16,2,pencils,TRUE,1,804,positive,item
561,c166,F,25,English,17,1,balloons,FALSE,1,817,positive,nothing
562,c166,F,25,English,18,0,kites,FALSE,1,858,negative,item
563,c166,F,25,English,19,0,shovels,TRUE,1,1452,negative,nothing
564,c166,F,25,English,20,3,crayons,TRUE,1,655,positive,item
565,c166,F,25,English,21,1,presents,TRUE,1,924,negative,nothing
566,c166,F,25,English,22,3,donuts,TRUE,1,827,negative,nothing
567,c166,F,25,English,23,3,daisies,TRUE,0,1280,negative,item
568,c166,F,25,English,24,3,flowers,FALSE,1,764,positive,nothing
569,c166,F,25,English,25,2,plants,FALSE,1,1118,positive,nothing
570,c166,F,25,English,26,0,guitars,TRUE,1,749,positive,item
571,c166,F,25,English,27,1,bows,FALSE,1,780,negative,item
572,c166,F,25,English,28,2,ice cream cones,TRUE,1,827,positive,item
573,c166,F,25,English,29,2,carrots,FALSE,1,679,negative,item
574,c166,F,25,English,30,2,umbrellas,TRUE,1,986,negative,nothing
575,c166,F,25,English,31,3,dogs,FALSE,1,765,positive,nothing
576,c166,F,25,English,32,0,rainboots,TRUE,1,1136,negative,nothing
577,c199,F,35,ENGLISH,1,2,shovels,FALSE,1,1563,negative,item
578,c199,F,35,ENGLISH,2,2,bows,TRUE,1,1522,positive,item
579,c199,F,35,ENGLISH,3,1,cookies,FALSE,1,987,positive,nothing
580,c199,F,35,ENGLISH,4,1,balloons,FALSE,1,894,positive,nothing
581,c199,F,35,ENGLISH,5,3,lollipops,TRUE,1,1310,negative,nothing
582,c199,F,35,ENGLISH,6,0,kites,FALSE,1,1049,negative,item
583,c199,F,35,ENGLISH,7,3,purses,TRUE,1,1148,positive,item
584,c199,F,35,ENGLISH,8,1,buckets,FALSE,1,1134,negative,item
585,c199,F,35,ENGLISH,9,3,fish,FALSE,1,1055,positive,nothing
586,c199,F,35,ENGLISH,10,3,crayons,FALSE,1,902,negative,item
587,c199,F,35,ENGLISH,11,1,pencils,FALSE,1,617,negative,item
588,c199,F,35,ENGLISH,12,1,carrots,TRUE,1,1025,positive,item
589,c199,F,35,ENGLISH,13,3,keys,FALSE,1,970,positive,nothing
590,c199,F,35,ENGLISH,14,0,bananas,TRUE,1,864,positive,item
591,c199,F,35,ENGLISH,15,3,mittens,FALSE,1,724,negative,item
592,c199,F,35,ENGLISH,16,3,daisies,TRUE,1,1086,positive,item
593,c199,F,35,ENGLISH,17,0,cats,TRUE,1,1366,negative,nothing
594,c199,F,35,ENGLISH,18,0,scissors,FALSE,1,887,negative,item
595,c199,F,35,ENGLISH,19,0,donuts,TRUE,1,706,positive,item
596,c199,F,35,ENGLISH,20,1,phones,TRUE,1,1033,negative,nothing
597,c199,F,35,ENGLISH,21,2,ice cream cones,TRUE,1,1002,negative,nothing
598,c199,F,35,ENGLISH,22,2,plants,TRUE,1,672,positive,item
599,c199,F,35,ENGLISH,23,2,presents,FALSE,1,792,positive,nothing
600,c199,F,35,ENGLISH,24,3,dogs,TRUE,1,917,negative,nothing
601,c199,F,35,ENGLISH,25,1,rainboots,TRUE,1,685,positive,item
602,c199,F,35,ENGLISH,26,0,cakes,FALSE,1,1135,positive,nothing
603,c199,F,35,ENGLISH,27,2,cars,FALSE,1,787,positive,nothing
604,c199,F,35,ENGLISH,28,2,guitars,TRUE,1,1191,negative,nothing
605,c199,F,35,ENGLISH,29,0,umbrellas,TRUE,1,1072,negative,nothing
606,c199,F,35,ENGLISH,30,1,flowers,TRUE,1,754,negative,nothing
607,c199,F,35,ENGLISH,31,2,apples,FALSE,1,786,negative,item
608,c199,F,35,ENGLISH,32,0,forks,FALSE,1,918,positive,nothing
609,c143,F,45,english,1,2,forks,TRUE,1,1542,positive,item
610,c143,F,45,english,2,0,apples,TRUE,1,1507,negative,nothing
611,c143,F,45,english,3,3,presents,FALSE,1,888,positive,nothing
612,c143,F,45,english,4,1,flowers,FALSE,1,902,negative,item
613,c143,F,45,english,5,3,balloons,FALSE,1,1013,negative,item
614,c143,F,45,english,6,2,scissors,FALSE,1,827,positive,nothing
615,c143,F,45,english,7,2,bananas,TRUE,1,937,negative,nothing
616,c143,F,45,english,8,3,kites,FALSE,1,990,negative,item
617,c143,F,45,english,9,2,shovels,FALSE,1,1127,positive,nothing
618,c143,F,45,english,10,3,phones,FALSE,1,1515,positive,nothing
619,c143,F,45,english,11,1,purses,FALSE,1,1242,negative,item
620,c143,F,45,english,12,2,daisies,TRUE,1,795,positive,item
621,c143,F,45,english,13,1,donuts,TRUE,1,802,positive,item
622,c143,F,45,english,14,0,pencils,FALSE,1,1190,negative,item
623,c143,F,45,english,15,1,mittens,FALSE,1,967,positive,nothing
624,c143,F,45,english,16,3,crayons,TRUE,1,1228,negative,nothing
625,c143,F,45,english,17,0,cakes,FALSE,1,1111,positive,nothing
626,c143,F,45,english,18,1,carrots,TRUE,1,1334,negative,nothing
627,c143,F,45,english,19,2,cats,FALSE,1,934,negative,item
628,c143,F,45,english,20,1,keys,FALSE,1,792,positive,nothing
629,c143,F,45,english,21,3,umbrellas,TRUE,1,996,positive,item
630,c143,F,45,english,22,1,cookies,TRUE,1,941,positive,item
631,c143,F,45,english,23,3,ice cream cones,TRUE,1,1089,negative,nothing
632,c143,F,45,english,24,0,bows,TRUE,1,959,positive,item
633,c143,F,45,english,25,0,fish,FALSE,1,909,negative,item
634,c143,F,45,english,26,2,plants,TRUE,1,1083,negative,nothing
635,c143,F,45,english,27,0,cars,TRUE,1,928,negative,nothing
636,c143,F,45,english,28,2,guitars,FALSE,1,1288,negative,item
637,c143,F,45,english,29,3,rainboots,TRUE,1,1272,positive,item
638,c143,F,45,english,30,0,dogs,FALSE,1,1084,positive,nothing
639,c143,F,45,english,31,1,lollipops,TRUE,1,1036,negative,nothing
640,c143,F,45,english,32,0,buckets,TRUE,1,1426,positive,item
641,c15,F,35,english,1,2,dogs,TRUE,1,2405,positive,item
642,c15,F,35,english,2,2,balloons,TRUE,0,2950,negative,item
643,c15,F,35,english,3,3,bows,FALSE,1,2685,positive,nothing
644,c15,F,35,english,4,1,donuts,TRUE,1,2602,negative,nothing
645,c15,F,35,english,5,0,bananas,TRUE,1,2086,negative,nothing
646,c15,F,35,english,6,3,cookies,FALSE,1,2661,negative,item
647,c15,F,35,english,7,0,ice cream cones,TRUE,1,1789,positive,item
648,c15,F,35,english,8,0,umbrellas,FALSE,1,2872,negative,item
649,c15,F,35,english,9,0,apples,FALSE,1,2855,positive,nothing
650,c15,F,35,english,10,2,buckets,FALSE,0,2892,positive,item
651,c15,F,35,english,11,3,plants,FALSE,0,1968,negative,nothing
652,c15,F,35,english,12,1,fish,FALSE,1,1477,positive,nothing
653,c15,F,35,english,13,2,mittens,TRUE,1,1798,negative,nothing
654,c15,F,35,english,14,1,crayons,TRUE,1,1757,positive,item
655,c15,F,35,english,15,3,scissors,FALSE,1,1936,positive,nothing
656,c15,F,35,english,16,1,lollipops,FALSE,1,1663,negative,item
657,c15,F,35,english,17,3,purses,TRUE,0,3299,negative,item
658,c15,F,35,english,18,1,keys,TRUE,1,1880,positive,item
659,c15,F,35,english,19,2,guitars,TRUE,1,1425,negative,nothing
660,c15,F,35,english,20,3,phones,TRUE,1,1109,positive,item
661,c15,F,35,english,21,0,presents,FALSE,1,1374,negative,item
662,c15,F,35,english,22,1,shovels,FALSE,0,1609,negative,nothing
663,c15,F,35,english,23,1,cars,FALSE,1,1822,negative,item
664,c15,F,35,english,24,3,flowers,TRUE,1,1660,negative,nothing
665,c15,F,35,english,25,2,cakes,FALSE,1,2400,negative,item
666,c15,F,35,english,26,2,rainboots,FALSE,1,2363,positive,nothing
667,c15,F,35,english,27,1,forks,FALSE,1,1540,positive,nothing
668,c15,F,35,english,28,0,daisies,FALSE,1,1886,positive,nothing
669,c15,F,35,english,29,3,pencils,TRUE,1,951,positive,item
670,c15,F,35,english,30,0,carrots,TRUE,1,1564,positive,item
671,c15,F,35,english,31,2,cats,FALSE,1,1521,positive,nothing
672,c15,F,35,english,32,0,kites,TRUE,1,1949,negative,nothing
673,c183,F,35,english,1,0,daisies,FALSE,1,1704,negative,item
674,c183,F,35,english,2,2,mittens,TRUE,1,1481,negative,nothing
675,c183,F,35,english,3,2,rainboots,FALSE,1,1226,positive,nothing
676,c183,F,35,english,4,3,buckets,TRUE,1,1386,negative,nothing
677,c183,F,35,english,5,1,flowers,TRUE,1,1410,negative,nothing
678,c183,F,35,english,6,0,ice cream cones,FALSE,1,1915,positive,nothing
679,c183,F,35,english,7,0,plants,TRUE,1,963,positive,item
680,c183,F,35,english,8,1,donuts,TRUE,1,778,positive,item
681,c183,F,35,english,9,1,fish,FALSE,0,810,negative,nothing
682,c183,F,35,english,10,0,apples,TRUE,1,1035,positive,item
683,c183,F,35,english,11,1,bows,TRUE,1,1122,positive,item
684,c183,F,35,english,12,2,lollipops,TRUE,1,723,positive,item
685,c183,F,35,english,13,2,carrots,FALSE,1,1090,negative,item
686,c183,F,35,english,14,1,purses,FALSE,1,1059,positive,nothing
687,c183,F,35,english,15,1,cars,FALSE,1,1211,positive,nothing
688,c183,F,35,english,16,1,kites,FALSE,1,890,negative,item
689,c183,F,35,english,17,3,cookies,TRUE,1,986,positive,item
690,c183,F,35,english,18,2,balloons,TRUE,1,1122,negative,nothing
691,c183,F,35,english,19,1,umbrellas,FALSE,1,1123,negative,item
692,c183,F,35,english,20,2,bananas,FALSE,1,939,positive,nothing
693,c183,F,35,english,21,3,dogs,TRUE,1,1130,negative,nothing
694,c183,F,35,english,22,0,forks,FALSE,1,1824,positive,nothing
695,c183,F,35,english,23,3,scissors,FALSE,1,3299,positive,nothing
696,c183,F,35,english,24,3,pencils,FALSE,1,745,positive,nothing
697,c183,F,35,english,25,0,shovels,TRUE,1,1731,negative,nothing
698,c183,F,35,english,26,0,presents,FALSE,1,786,negative,item
699,c183,F,35,english,27,3,keys,TRUE,1,833,positive,item
700,c183,F,35,english,28,3,phones,FALSE,1,955,negative,item
701,c183,F,35,english,29,0,cats,TRUE,1,1194,negative,nothing
702,c183,F,35,english,30,2,cakes,FALSE,1,737,negative,item
703,c183,F,35,english,31,3,guitars,FALSE,1,872,negative,item
704,c183,F,35,english,32,2,crayons,TRUE,1,1290,positive,item
801,c8,F,55,English,1,0,flowers,TRUE,1,1607,positive,item
802,c8,F,55,English,2,0,crayons,FALSE,1,1119,negative,item
803,c8,F,55,English,3,2,fish,FALSE,1,1092,positive,nothing
804,c8,F,55,English,4,2,phones,FALSE,1,847,negative,item
805,c8,F,55,English,5,1,balloons,FALSE,1,929,positive,nothing
806,c8,F,55,English,6,1,apples,TRUE,1,1805,negative,nothing
807,c8,F,55,English,7,0,dogs,TRUE,1,1769,negative,nothing
808,c8,F,55,English,8,3,mittens,TRUE,1,1258,positive,item
809,c8,F,55,English,9,3,plants,FALSE,1,1099,negative,item
810,c8,F,55,English,10,0,keys,TRUE,1,1183,positive,item
811,c8,F,55,English,11,3,scissors,FALSE,1,852,positive,nothing
812,c8,F,55,English,12,1,ice cream cones,TRUE,1,1238,positive,item
813,c8,F,55,English,13,0,rainboots,FALSE,1,1172,positive,nothing
814,c8,F,55,English,14,3,lollipops,TRUE,1,898,positive,item
815,c8,F,55,English,15,3,cookies,FALSE,0,1145,negative,nothing
816,c8,F,55,English,16,3,pencils,FALSE,1,1080,negative,item
817,c8,F,55,English,17,0,carrots,TRUE,1,1423,negative,nothing
818,c8,F,55,English,18,2,guitars,TRUE,1,1225,positive,item
819,c8,F,55,English,19,2,donuts,TRUE,1,1010,negative,nothing
820,c8,F,55,English,20,3,forks,TRUE,1,998,negative,nothing
821,c8,F,55,English,21,2,umbrellas,TRUE,1,1044,positive,item
822,c8,F,55,English,22,2,bananas,FALSE,1,922,positive,nothing
823,c8,F,55,English,23,1,cars,FALSE,1,896,negative,item
824,c8,F,55,English,24,1,bows,FALSE,1,2397,negative,item
825,c8,F,55,English,25,0,cats,FALSE,1,1880,negative,item
826,c8,F,55,English,26,0,kites,FALSE,1,1235,positive,nothing
827,c8,F,55,English,27,1,daisies,TRUE,1,1806,negative,nothing
828,c8,F,55,English,28,1,cakes,TRUE,0,1512,positive,nothing
829,c8,F,55,English,29,1,purses,TRUE,1,2442,positive,item
830,c8,F,55,English,30,2,buckets,FALSE,1,1223,negative,item
831,c8,F,55,English,31,2,presents,TRUE,1,1018,negative,nothing
832,c8,F,55,English,32,3,shovels,FALSE,1,1643,positive,nothing
865,c98,F,35,English,1,2,umbrellas,TRUE,1,1255,positive,item
866,c98,F,35,English,2,3,mittens,TRUE,1,1419,negative,nothing
867,c98,F,35,English,3,0,daisies,TRUE,1,826,positive,item
868,c98,F,35,English,4,2,flowers,FALSE,1,1171,positive,nothing
869,c98,F,35,English,5,1,bananas,FALSE,1,812,negative,item
870,c98,F,35,English,6,1,apples,TRUE,1,635,positive,item
871,c98,F,35,English,7,1,presents,FALSE,1,1019,negative,item
872,c98,F,35,English,8,3,purses,TRUE,1,1123,positive,item
873,c98,F,35,English,9,0,cookies,TRUE,1,1507,negative,nothing
874,c98,F,35,English,10,1,dogs,TRUE,1,540,positive,item
875,c98,F,35,English,11,0,forks,FALSE,1,1642,positive,nothing
876,c98,F,35,English,12,1,carrots,FALSE,1,1138,positive,nothing
877,c98,F,35,English,13,1,plants,FALSE,1,883,positive,nothing
878,c98,F,35,English,14,2,scissors,TRUE,1,555,negative,nothing
879,c98,F,35,English,15,3,fish,FALSE,1,1076,positive,nothing
880,c98,F,35,English,16,3,shovels,FALSE,1,643,positive,nothing
881,c98,F,35,English,17,0,cars,FALSE,1,850,positive,nothing
882,c98,F,35,English,18,2,keys,FALSE,1,501,positive,nothing
883,c98,F,35,English,19,1,crayons,TRUE,1,715,negative,nothing
884,c98,F,35,English,20,2,guitars,FALSE,1,555,negative,item
885,c98,F,35,English,21,0,lollipops,FALSE,1,676,negative,item
886,c98,F,35,English,22,1,buckets,TRUE,1,419,negative,nothing
887,c98,F,35,English,23,2,pencils,TRUE,1,459,negative,nothing
888,c98,F,35,English,24,3,bows,FALSE,0,541,positive,item
889,c98,F,35,English,25,0,ice cream cones,TRUE,1,539,negative,nothing
890,c98,F,35,English,26,0,phones,TRUE,1,827,positive,item
891,c98,F,35,English,27,2,cats,FALSE,1,596,negative,item
892,c98,F,35,English,28,3,kites,TRUE,1,610,negative,nothing
893,c98,F,35,English,29,3,rainboots,FALSE,1,1347,negative,item
894,c98,F,35,English,30,0,cakes,FALSE,1,739,negative,item
895,c98,F,35,English,31,2,balloons,TRUE,1,459,positive,item
896,c98,F,35,English,32,3,donuts,FALSE,1,597,negative,item
929,c102,F,35,English,1,3,purses,FALSE,1,1211,positive,nothing
930,c102,F,35,English,2,0,cakes,TRUE,1,2109,negative,nothing
931,c102,F,35,English,3,2,donuts,FALSE,1,1384,negative,item
932,c102,F,35,English,4,0,kites,TRUE,1,1019,negative,nothing
933,c102,F,35,English,5,0,shovels,FALSE,1,910,positive,nothing
934,c102,F,35,English,6,3,crayons,TRUE,1,839,negative,nothing
935,c102,F,35,English,7,2,apples,TRUE,1,867,negative,nothing
936,c102,F,35,English,8,0,mittens,FALSE,1,1649,negative,item
937,c102,F,35,English,9,1,presents,FALSE,1,1294,positive,nothing
938,c102,F,35,English,10,2,keys,FALSE,1,746,negative,item
939,c102,F,35,English,11,3,flowers,TRUE,1,869,negative,nothing
940,c102,F,35,English,12,1,bananas,FALSE,1,818,positive,nothing
941,c102,F,35,English,13,2,forks,FALSE,1,946,positive,nothing
942,c102,F,35,English,14,3,rainboots,FALSE,1,848,positive,nothing
943,c102,F,35,English,15,0,phones,FALSE,1,822,positive,nothing
944,c102,F,35,English,16,3,balloons,TRUE,1,625,positive,item
945,c102,F,35,English,17,2,dogs,FALSE,1,1537,positive,nothing
946,c102,F,35,English,18,2,ice cream cones,TRUE,1,1108,negative,nothing
947,c102,F,35,English,19,1,cats,FALSE,1,1274,negative,item
948,c102,F,35,English,20,1,scissors,FALSE,1,691,negative,item
949,c102,F,35,English,21,0,plants,TRUE,1,726,positive,item
950,c102,F,35,English,22,2,buckets,TRUE,1,833,positive,item
951,c102,F,35,English,23,1,cookies,TRUE,1,850,negative,nothing
952,c102,F,35,English,24,3,pencils,TRUE,1,1085,positive,item
953,c102,F,35,English,25,0,guitars,TRUE,1,674,positive,item
954,c102,F,35,English,26,1,fish,TRUE,1,732,positive,item
955,c102,F,35,English,27,2,lollipops,TRUE,1,736,positive,item
956,c102,F,35,English,28,0,cars,FALSE,1,801,negative,item
957,c102,F,35,English,29,1,daisies,TRUE,1,1101,negative,nothing
958,c102,F,35,English,30,3,umbrellas,FALSE,1,669,negative,item
959,c102,F,35,English,31,1,carrots,TRUE,1,813,positive,item
960,c102,F,35,English,32,3,bows,FALSE,1,1454,negative,item
993,c211,F,35,English,1,0,cookies,FALSE,1,2749,negative,item
994,c211,F,35,English,2,0,mittens,TRUE,1,2168,negative,nothing
995,c211,F,35,English,3,1,umbrellas,TRUE,0,1432,positive,nothing
996,c211,F,35,English,4,2,plants,FALSE,1,1717,positive,nothing
997,c211,F,35,English,5,1,cats,FALSE,1,1342,positive,nothing
998,c211,F,35,English,6,2,donuts,TRUE,1,1756,positive,item
999,c211,F,35,English,7,2,purses,FALSE,1,1787,negative,item
1000,c211,F,35,English,8,3,dogs,FALSE,1,1352,positive,nothing
1001,c211,F,35,English,9,3,daisies,FALSE,1,1860,negative,item
1002,c211,F,35,English,10,3,rainboots,TRUE,1,1758,negative,nothing
1003,c211,F,35,English,11,0,keys,FALSE,1,1437,negative,item
1004,c211,F,35,English,12,3,presents,TRUE,1,1385,positive,item
1005,c211,F,35,English,13,0,cars,TRUE,1,1264,positive,item
1006,c211,F,35,English,14,1,scissors,FALSE,1,1663,negative,item
1007,c211,F,35,English,15,0,buckets,FALSE,1,3248,positive,nothing
1008,c211,F,35,English,16,0,apples,FALSE,1,1748,positive,nothing
1009,c211,F,35,English,17,2,ice cream cones,FALSE,1,1592,positive,nothing
1010,c211,F,35,English,18,1,lollipops,TRUE,1,1609,negative,nothing
1011,c211,F,35,English,19,1,forks,TRUE,1,2380,negative,nothing
1012,c211,F,35,English,20,1,crayons,FALSE,1,1359,negative,item
1013,c211,F,35,English,21,3,kites,FALSE,1,1668,negative,item
1014,c211,F,35,English,22,1,pencils,TRUE,1,1151,positive,item
1015,c211,F,35,English,23,3,guitars,TRUE,1,1520,negative,nothing
1016,c211,F,35,English,24,2,phones,FALSE,1,2421,negative,item
1017,c211,F,35,English,25,3,fish,TRUE,1,1309,positive,item
1018,c211,F,35,English,26,0,shovels,TRUE,1,1089,positive,item
1019,c211,F,35,English,27,2,bananas,TRUE,1,1353,positive,item
1020,c211,F,35,English,28,2,cakes,TRUE,1,1274,negative,nothing
1021,c211,F,35,English,29,1,bows,FALSE,0,2037,positive,item
1022,c211,F,35,English,30,3,carrots,FALSE,1,2484,positive,nothing
1023,c211,F,35,English,31,2,flowers,TRUE,1,1594,negative,nothing
1024,c211,F,35,English,32,0,balloons,TRUE,1,1775,negative,nothing
1057,c59,F,25,English,1,3,presents,FALSE,1,3136,positive,nothing
1058,c59,F,25,English,2,2,cookies,TRUE,1,1175,negative,nothing
1059,c59,F,25,English,3,1,kites,TRUE,1,1293,negative,nothing
1060,c59,F,25,English,4,0,bows,TRUE,1,880,positive,item
1061,c59,F,25,English,5,2,ice cream cones,FALSE,1,1374,negative,item
1062,c59,F,25,English,6,1,fish,FALSE,1,1171,positive,nothing
1063,c59,F,25,English,7,0,cats,FALSE,1,2056,positive,nothing
1064,c59,F,25,English,8,1,pencils,TRUE,1,1202,positive,item
1065,c59,F,25,English,9,2,umbrellas,TRUE,1,1223,negative,nothing
1066,c59,F,25,English,10,3,bananas,TRUE,1,651,positive,item
1067,c59,F,25,English,11,3,forks,TRUE,1,910,negative,nothing
1068,c59,F,25,English,12,1,buckets,FALSE,1,777,negative,item
1069,c59,F,25,English,13,1,shovels,TRUE,1,591,positive,item
1070,c59,F,25,English,14,3,rainboots,FALSE,1,1448,negative,item
1071,c59,F,25,English,15,2,keys,FALSE,1,734,negative,item
1072,c59,F,25,English,16,0,mittens,TRUE,1,1628,negative,nothing
1073,c59,F,25,English,17,1,phones,TRUE,1,1074,negative,nothing
1074,c59,F,25,English,18,3,scissors,TRUE,1,862,negative,nothing
1075,c59,F,25,English,19,0,carrots,FALSE,1,1090,negative,item
1076,c59,F,25,English,20,3,cakes,TRUE,1,987,positive,item
1077,c59,F,25,English,21,2,lollipops,TRUE,1,737,positive,item
1078,c59,F,25,English,22,1,guitars,FALSE,1,1046,positive,nothing
1079,c59,F,25,English,23,3,plants,FALSE,1,728,negative,item
1080,c59,F,25,English,24,2,daisies,FALSE,1,1103,positive,nothing
1081,c59,F,25,English,25,0,cars,TRUE,1,1270,negative,nothing
1082,c59,F,25,English,26,2,purses,FALSE,1,843,positive,nothing
1083,c59,F,25,English,27,0,apples,FALSE,1,859,negative,item
1084,c59,F,25,English,28,2,flowers,TRUE,1,2288,positive,item
1085,c59,F,25,English,29,0,crayons,TRUE,1,663,positive,item
1086,c59,F,25,English,30,3,dogs,FALSE,1,1107,positive,nothing
1087,c59,F,25,English,31,0,donuts,FALSE,1,821,positive,nothing
1088,c59,F,25,English,32,1,balloons,FALSE,1,901,negative,item
1089,c190,F,65,English,1,2,carrots,FALSE,1,2420,positive,nothing
1090,c190,F,65,English,2,3,bananas,FALSE,1,868,positive,nothing
1091,c190,F,65,English,3,2,cats,FALSE,1,1470,positive,nothing
1092,c190,F,65,English,4,3,forks,TRUE,0,1431,negative,item
1093,c190,F,65,English,5,0,flowers,TRUE,1,1785,negative,nothing
1094,c190,F,65,English,6,3,bows,TRUE,1,1039,negative,nothing
1095,c190,F,65,English,7,2,donuts,TRUE,1,1277,negative,nothing
1096,c190,F,65,English,8,1,guitars,FALSE,1,1414,negative,item
1097,c190,F,65,English,9,1,mittens,TRUE,1,1036,negative,nothing
1098,c190,F,65,English,10,0,presents,TRUE,1,1866,positive,item
1099,c190,F,65,English,11,1,shovels,FALSE,1,1432,negative,item
1100,c190,F,65,English,12,0,cars,TRUE,1,1803,negative,nothing
1101,c190,F,65,English,13,1,dogs,TRUE,1,908,positive,item
1102,c190,F,65,English,14,3,daisies,FALSE,1,1215,negative,item
1103,c190,F,65,English,15,3,cookies,TRUE,1,914,positive,item
1104,c190,F,65,English,16,0,kites,TRUE,1,967,positive,item
1105,c190,F,65,English,17,2,ice cream cones,FALSE,1,927,negative,item
1106,c190,F,65,English,18,2,scissors,TRUE,1,829,positive,item
1107,c190,F,65,English,19,1,cakes,TRUE,0,806,positive,nothing
1108,c190,F,65,English,20,0,balloons,FALSE,1,1324,negative,item
1109,c190,F,65,English,21,2,umbrellas,FALSE,1,793,negative,item
1110,c190,F,65,English,22,0,crayons,FALSE,1,705,negative,item
1111,c190,F,65,English,23,1,purses,FALSE,0,754,negative,nothing
1112,c190,F,65,English,24,2,apples,TRUE,1,1447,positive,item
1113,c190,F,65,English,25,0,fish,FALSE,1,1156,positive,nothing
1114,c190,F,65,English,26,0,lollipops,FALSE,1,1324,positive,nothing
1115,c190,F,65,English,27,1,phones,FALSE,1,1215,positive,nothing
1116,c190,F,65,English,28,3,buckets,TRUE,1,1396,negative,nothing
1117,c190,F,65,English,29,3,plants,FALSE,1,1187,positive,nothing
1118,c190,F,65,English,30,1,pencils,TRUE,1,1864,positive,item
1119,c190,F,65,English,31,2,keys,TRUE,1,1295,negative,nothing
1120,c190,F,65,English,32,3,rainboots,TRUE,1,1801,positive,item
1153,c95,F,25,English,1,2,presents,FALSE,1,1594,negative,item
1154,c95,F,25,English,2,3,umbrellas,TRUE,1,1319,positive,item
1155,c95,F,25,English,3,2,guitars,TRUE,1,699,positive,item
1156,c95,F,25,English,4,3,lollipops,TRUE,1,903,positive,item
1157,c95,F,25,English,5,3,cakes,FALSE,1,635,negative,item
1158,c95,F,25,English,6,1,plants,FALSE,1,891,positive,nothing
1159,c95,F,25,English,7,3,donuts,FALSE,1,736,positive,nothing
1160,c95,F,25,English,8,0,phones,FALSE,1,937,negative,item
1161,c95,F,25,English,9,2,fish,FALSE,1,530,negative,item
1162,c95,F,25,English,10,2,flowers,FALSE,1,1031,positive,nothing
1163,c95,F,25,English,11,3,balloons,FALSE,1,845,negative,item
1164,c95,F,25,English,12,2,kites,FALSE,1,769,positive,nothing
1165,c95,F,25,English,13,0,rainboots,TRUE,0,1391,negative,item
1166,c95,F,25,English,14,0,bows,TRUE,1,1938,negative,nothing
1167,c95,F,25,English,15,0,mittens,TRUE,1,1111,positive,item
1168,c95,F,25,English,16,1,cats,TRUE,1,599,positive,item
1169,c95,F,25,English,17,0,keys,TRUE,1,751,positive,item
1170,c95,F,25,English,18,1,pencils,FALSE,1,533,negative,item
1171,c95,F,25,English,19,1,crayons,FALSE,1,517,positive,nothing
1172,c95,F,25,English,20,2,scissors,TRUE,1,654,positive,item
1173,c95,F,25,English,21,0,buckets,FALSE,1,816,positive,nothing
1174,c95,F,25,English,22,1,daisies,FALSE,1,1517,negative,item
1175,c95,F,25,English,23,1,cookies,TRUE,1,904,negative,nothing
1176,c95,F,25,English,24,1,bananas,TRUE,1,766,positive,item
1177,c95,F,25,English,25,1,ice cream cones,TRUE,1,626,negative,nothing
1178,c95,F,25,English,26,0,carrots,TRUE,1,784,negative,nothing
1179,c95,F,25,English,27,2,purses,TRUE,1,811,negative,nothing
1180,c95,F,25,English,28,3,cars,FALSE,1,642,positive,nothing
1181,c95,F,25,English,29,3,forks,TRUE,1,1221,negative,nothing
1182,c95,F,25,English,30,3,dogs,TRUE,1,749,negative,nothing
1183,c95,F,25,English,31,2,shovels,TRUE,1,427,negative,nothing
1184,c95,F,25,English,32,0,apples,FALSE,1,860,positive,nothing
1217,c192,F,55,English,1,3,kites,FALSE,1,2181,negative,item
1218,c192,F,55,English,2,1,lollipops,TRUE,1,2173,positive,item
1219,c192,F,55,English,3,3,cars,TRUE,1,1830,negative,nothing
1220,c192,F,55,English,4,2,keys,TRUE,1,1271,negative,nothing
1221,c192,F,55,English,5,1,carrots,FALSE,1,1983,positive,nothing
1222,c192,F,55,English,6,2,ice cream cones,TRUE,1,1063,positive,item
1223,c192,F,55,English,7,2,umbrellas,FALSE,1,1390,positive,nothing
1224,c192,F,55,English,8,1,cats,FALSE,1,1432,negative,item
1225,c192,F,55,English,9,3,daisies,FALSE,1,2408,negative,item
1226,c192,F,55,English,10,0,bananas,TRUE,1,1479,positive,item
1227,c192,F,55,English,11,2,shovels,TRUE,1,1312,negative,nothing
1228,c192,F,55,English,12,3,pencils,TRUE,1,1134,positive,item
1229,c192,F,55,English,13,3,mittens,FALSE,1,1295,positive,nothing
1230,c192,F,55,English,14,0,guitars,FALSE,1,1471,negative,item
1231,c192,F,55,English,15,1,buckets,FALSE,1,1448,negative,item
1232,c192,F,55,English,16,2,presents,TRUE,1,1374,positive,item
1233,c192,F,55,English,17,2,flowers,FALSE,1,1455,negative,item
1234,c192,F,55,English,18,0,balloons,FALSE,1,1526,positive,nothing
1235,c192,F,55,English,19,0,fish,TRUE,1,2048,negative,nothing
1236,c192,F,55,English,20,3,phones,FALSE,1,1343,positive,nothing
1237,c192,F,55,English,21,1,scissors,TRUE,1,1415,negative,nothing
1238,c192,F,55,English,22,1,dogs,FALSE,1,1263,positive,nothing
1239,c192,F,55,English,23,1,donuts,TRUE,1,1015,negative,nothing
1240,c192,F,55,English,24,2,cookies,FALSE,1,1327,positive,nothing
1241,c192,F,55,English,25,3,purses,TRUE,1,1239,negative,nothing
1242,c192,F,55,English,26,0,forks,TRUE,1,1319,negative,nothing
1243,c192,F,55,English,27,0,rainboots,TRUE,1,1966,positive,item
1244,c192,F,55,English,28,2,plants,FALSE,1,936,negative,item
1245,c192,F,55,English,29,0,apples,FALSE,1,1654,positive,nothing
1246,c192,F,55,English,30,0,crayons,FALSE,1,1719,negative,item
1247,c192,F,55,English,31,3,cakes,TRUE,1,981,positive,item
1248,c192,F,55,English,32,1,bows,TRUE,1,1064,positive,item
1281,c149,F,35,English,1,3,apples,FALSE,0,2563,positive,item
1282,c149,F,35,English,2,0,cars,TRUE,1,1830,negative,nothing
1283,c149,F,35,English,3,0,daisies,FALSE,1,1501,negative,item
1284,c149,F,35,English,4,2,buckets,TRUE,1,1253,positive,item
1285,c149,F,35,English,5,2,phones,TRUE,1,1069,negative,nothing
1286,c149,F,35,English,6,1,scissors,TRUE,1,820,positive,item
1287,c149,F,35,English,7,3,rainboots,FALSE,1,1148,negative,item
1288,c149,F,35,English,8,2,keys,TRUE,1,964,positive,item
1289,c149,F,35,English,9,3,bananas,TRUE,1,1234,positive,item
1290,c149,F,35,English,10,2,balloons,TRUE,1,714,negative,nothing
1291,c149,F,35,English,11,1,presents,FALSE,1,996,negative,item
1292,c149,F,35,English,12,0,bows,FALSE,1,887,negative,item
1293,c149,F,35,English,13,3,donuts,FALSE,1,870,positive,nothing
1294,c149,F,35,English,14,1,dogs,FALSE,1,877,positive,nothing
1295,c149,F,35,English,15,3,kites,FALSE,1,1347,negative,item
1296,c149,F,35,English,16,0,plants,FALSE,1,1729,positive,nothing
1297,c149,F,35,English,17,3,purses,TRUE,1,814,negative,nothing
1298,c149,F,35,English,18,0,umbrellas,TRUE,1,1377,positive,item
1299,c149,F,35,English,19,2,guitars,FALSE,1,761,negative,item
1300,c149,F,35,English,20,1,fish,TRUE,1,1009,negative,nothing
1301,c149,F,35,English,21,2,cookies,FALSE,1,722,negative,item
1302,c149,F,35,English,22,0,crayons,TRUE,1,546,positive,item
1303,c149,F,35,English,23,3,mittens,FALSE,1,860,positive,nothing
1304,c149,F,35,English,24,2,shovels,FALSE,1,629,positive,nothing
1305,c149,F,35,English,25,1,ice cream cones,FALSE,1,929,positive,nothing
1306,c149,F,35,English,26,1,cakes,TRUE,1,668,negative,nothing
1307,c149,F,35,English,27,0,cats,FALSE,1,1299,positive,nothing
1308,c149,F,35,English,28,0,carrots,TRUE,1,1636,negative,nothing
1309,c149,F,35,English,29,2,pencils,FALSE,1,1589,positive,nothing
1310,c149,F,35,English,30,3,flowers,TRUE,1,852,negative,nothing
1311,c149,F,35,English,31,1,forks,FALSE,1,1634,negative,item
1312,c149,F,35,English,32,1,lollipops,TRUE,1,910,positive,item
1441,c139,F,25,ENGLISH,1,2,purses,FALSE,0,6830,negative,nothing
1442,c139,F,25,ENGLISH,2,2,presents,FALSE,1,4498,negative,item
1443,c139,F,25,ENGLISH,3,3,keys,TRUE,1,2450,negative,nothing
1444,c139,F,25,ENGLISH,4,3,fish,FALSE,1,3193,negative,item
1445,c139,F,25,ENGLISH,5,3,cars,FALSE,0,5154,positive,item
1446,c139,F,25,ENGLISH,6,1,phones,TRUE,0,13617,negative,item
1447,c139,F,25,ENGLISH,7,2,bows,FALSE,1,4990,negative,item
1448,c139,F,25,ENGLISH,8,2,pencils,FALSE,1,2147,positive,nothing
1449,c139,F,25,ENGLISH,9,2,plants,FALSE,1,5525,positive,nothing
1450,c139,F,25,ENGLISH,10,1,bananas,TRUE,0,4552,negative,item
1451,c139,F,25,ENGLISH,11,0,balloons,TRUE,1,1529,negative,nothing
1452,c139,F,25,ENGLISH,12,0,umbrellas,TRUE,1,5582,negative,nothing
1453,c139,F,25,ENGLISH,13,1,apples,TRUE,1,3114,positive,item
1454,c139,F,25,ENGLISH,14,3,flowers,FALSE,1,8873,negative,item
1455,c139,F,25,ENGLISH,15,1,lollipops,FALSE,1,14139,positive,nothing
1456,c139,F,25,ENGLISH,16,0,kites,TRUE,0,1898,negative,item
1457,c139,F,25,ENGLISH,17,2,cats,TRUE,1,8140,negative,nothing
1458,c139,F,25,ENGLISH,18,2,cookies,FALSE,0,3542,positive,item
1459,c139,F,25,ENGLISH,19,3,forks,FALSE,1,7437,positive,nothing
1460,c139,F,25,ENGLISH,20,1,shovels,FALSE,1,1813,positive,nothing
1461,c139,F,25,ENGLISH,21,3,rainboots,TRUE,1,1980,positive,item
1462,c139,F,25,ENGLISH,22,0,ice cream cones,TRUE,1,1367,positive,item
1463,c139,F,25,ENGLISH,23,0,scissors,FALSE,1,955,negative,item
1464,c139,F,25,ENGLISH,24,1,guitars,TRUE,1,2651,positive,item
1465,c139,F,25,ENGLISH,25,1,donuts,TRUE,1,1641,negative,nothing
1466,c139,F,25,ENGLISH,26,3,mittens,TRUE,1,1607,negative,nothing
1467,c139,F,25,ENGLISH,27,3,daisies,FALSE,1,3008,positive,nothing
1468,c139,F,25,ENGLISH,28,0,crayons,FALSE,1,3780,positive,nothing
1469,c139,F,25,ENGLISH,29,2,cakes,TRUE,1,3993,positive,item
1470,c139,F,25,ENGLISH,30,0,dogs,FALSE,1,3593,positive,nothing
1471,c139,F,25,ENGLISH,31,1,carrots,TRUE,1,2570,negative,nothing
1472,c139,F,25,ENGLISH,32,0,buckets,TRUE,1,5795,positive,item
1473,c48,F,65,english,1,3,mittens,TRUE,1,1877,positive,item
1474,c48,F,65,english,2,0,plants,FALSE,1,1901,negative,item
1475,c48,F,65,english,3,0,guitars,TRUE,1,1985,negative,nothing
1476,c48,F,65,english,4,2,carrots,TRUE,1,2414,positive,item
1477,c48,F,65,english,5,0,cars,FALSE,1,1652,negative,item
1478,c48,F,65,english,6,1,pencils,TRUE,1,1429,negative,nothing
1479,c48,F,65,english,7,1,shovels,FALSE,1,1687,positive,nothing
1480,c48,F,65,english,8,3,cats,FALSE,1,2071,negative,item
1481,c48,F,65,english,9,2,purses,TRUE,1,1579,negative,nothing
1482,c48,F,65,english,10,0,ice cream cones,FALSE,1,1695,positive,nothing
1483,c48,F,65,english,11,1,cookies,FALSE,1,1212,negative,item
1484,c48,F,65,english,12,2,apples,FALSE,1,1576,positive,nothing
1485,c48,F,65,english,13,1,daisies,TRUE,1,1167,positive,item
1486,c48,F,65,english,14,0,cakes,TRUE,1,1546,negative,nothing
1487,c48,F,65,english,15,1,crayons,TRUE,1,1109,positive,item
1488,c48,F,65,english,16,0,phones,TRUE,1,1650,positive,item
1489,c48,F,65,english,17,0,keys,TRUE,1,1563,positive,item
1490,c48,F,65,english,18,2,presents,FALSE,1,937,negative,item
1491,c48,F,65,english,19,2,kites,TRUE,1,973,positive,item
1492,c48,F,65,english,20,3,donuts,FALSE,1,1056,positive,nothing
1493,c48,F,65,english,21,2,rainboots,FALSE,1,1896,positive,nothing
1494,c48,F,65,english,22,3,scissors,FALSE,1,1485,positive,nothing
1495,c48,F,65,english,23,3,umbrellas,TRUE,1,1277,negative,nothing
1496,c48,F,65,english,24,0,fish,FALSE,1,1161,positive,nothing
1497,c48,F,65,english,25,1,buckets,FALSE,1,1511,positive,nothing
1498,c48,F,65,english,26,1,dogs,TRUE,1,1169,negative,nothing
1499,c48,F,65,english,27,2,forks,TRUE,1,1446,negative,nothing
1500,c48,F,65,english,28,1,balloons,FALSE,1,967,negative,item
1501,c48,F,65,english,29,3,bows,TRUE,1,2121,positive,item
1502,c48,F,65,english,30,2,bananas,FALSE,1,1071,negative,item
1503,c48,F,65,english,31,3,flowers,TRUE,1,1494,negative,nothing
1504,c48,F,65,english,32,3,lollipops,FALSE,1,1828,negative,item
1505,c68,F,45,English,1,0,keys,TRUE,1,2222,positive,item
1506,c68,F,45,English,2,3,phones,FALSE,1,1688,positive,nothing
1507,c68,F,45,English,3,1,shovels,FALSE,1,2378,negative,item
1508,c68,F,45,English,4,1,bananas,TRUE,1,1525,negative,nothing
1509,c68,F,45,English,5,2,balloons,TRUE,1,2126,positive,item
1510,c68,F,45,English,6,1,dogs,FALSE,1,1658,positive,nothing
1511,c68,F,45,English,7,2,carrots,TRUE,1,1977,negative,nothing
1512,c68,F,45,English,8,2,umbrellas,TRUE,1,1446,positive,item
1513,c68,F,45,English,9,3,plants,FALSE,1,1915,negative,item
1514,c68,F,45,English,10,0,crayons,TRUE,1,1959,negative,nothing
1515,c68,F,45,English,11,3,cookies,TRUE,1,1677,positive,item
1516,c68,F,45,English,12,2,scissors,TRUE,1,1648,negative,nothing
1517,c68,F,45,English,13,2,apples,FALSE,1,1873,positive,nothing
1518,c68,F,45,English,14,0,flowers,TRUE,1,1292,positive,item
1519,c68,F,45,English,15,1,daisies,FALSE,1,1571,positive,nothing
1520,c68,F,45,English,16,2,presents,FALSE,1,1247,positive,nothing
1521,c68,F,45,English,17,1,bows,TRUE,1,2455,negative,nothing
1522,c68,F,45,English,18,2,buckets,FALSE,1,1408,negative,item
1523,c68,F,45,English,19,3,purses,FALSE,1,1856,positive,nothing
1524,c68,F,45,English,20,2,lollipops,FALSE,1,1546,negative,item
1525,c68,F,45,English,21,0,mittens,FALSE,1,1688,positive,nothing
1526,c68,F,45,English,22,0,guitars,TRUE,1,1846,negative,nothing
1527,c68,F,45,English,23,3,kites,FALSE,1,1429,negative,item
1528,c68,F,45,English,24,0,donuts,FALSE,1,1230,negative,item
1529,c68,F,45,English,25,0,pencils,FALSE,1,1874,positive,nothing
1530,c68,F,45,English,26,1,cars,TRUE,1,2088,positive,item
1531,c68,F,45,English,27,0,forks,FALSE,1,1143,negative,item
1532,c68,F,45,English,28,1,fish,FALSE,1,2051,negative,item
1533,c68,F,45,English,29,1,cakes,TRUE,1,2252,positive,item
1534,c68,F,45,English,30,3,rainboots,TRUE,1,2393,negative,nothing
1535,c68,F,45,English,31,3,ice cream cones,TRUE,1,1842,negative,nothing
1536,c68,F,45,English,32,3,cats,TRUE,1,2171,positive,item
1569,c49,F,45,English,1,1,cookies,FALSE,1,2417,negative,item
1570,c49,F,45,English,2,0,phones,FALSE,1,946,negative,item
1571,c49,F,45,English,3,0,cats,TRUE,1,1042,positive,item
1572,c49,F,45,English,4,2,apples,FALSE,1,1012,positive,nothing
1573,c49,F,45,English,5,0,donuts,FALSE,1,1297,positive,nothing
1574,c49,F,45,English,6,3,crayons,TRUE,1,1008,positive,item
1575,c49,F,45,English,7,1,lollipops,FALSE,0,1429,negative,nothing
1576,c49,F,45,English,8,1,bananas,FALSE,1,1303,positive,nothing
1577,c49,F,45,English,9,0,shovels,TRUE,1,1496,positive,item
1578,c49,F,45,English,10,0,bows,FALSE,1,1975,positive,nothing
1579,c49,F,45,English,11,0,daisies,FALSE,1,1494,negative,item
1580,c49,F,45,English,12,2,plants,FALSE,1,1489,negative,item
1581,c49,F,45,English,13,2,pencils,TRUE,1,1682,negative,nothing
1582,c49,F,45,English,14,2,cars,TRUE,1,1585,positive,item
1583,c49,F,45,English,15,1,balloons,FALSE,1,1394,negative,item
1584,c49,F,45,English,16,0,umbrellas,FALSE,0,1593,negative,nothing
1585,c49,F,45,English,17,2,flowers,TRUE,1,849,positive,item
1586,c49,F,45,English,18,0,purses,TRUE,1,1845,negative,nothing
1587,c49,F,45,English,19,2,cakes,FALSE,1,1713,negative,item
1588,c49,F,45,English,20,2,fish,TRUE,1,1136,negative,nothing
1589,c49,F,45,English,21,1,keys,FALSE,1,2682,positive,nothing
1590,c49,F,45,English,22,1,buckets,TRUE,1,1620,positive,item
1591,c49,F,45,English,23,3,dogs,TRUE,1,943,negative,nothing
1592,c49,F,45,English,24,3,guitars,FALSE,1,1650,negative,item
1593,c49,F,45,English,25,3,scissors,TRUE,1,1264,positive,item
1594,c49,F,45,English,26,3,forks,FALSE,1,2611,positive,nothing
1595,c49,F,45,English,27,1,ice cream cones,TRUE,1,1464,negative,nothing
1596,c49,F,45,English,28,3,presents,FALSE,1,1143,positive,nothing
1597,c49,F,45,English,29,3,mittens,TRUE,1,2004,negative,nothing
1598,c49,F,45,English,30,1,carrots,TRUE,1,1169,positive,item
1599,c49,F,45,English,31,3,kites,FALSE,1,1233,negative,item
1600,c49,F,45,English,32,2,rainboots,FALSE,1,1331,positive,nothing
1601,c141,F,35,English,1,0,rainboots,FALSE,1,2313,negative,item
1602,c141,F,35,English,2,3,plants,TRUE,1,2378,positive,item
1603,c141,F,35,English,3,2,guitars,FALSE,1,1380,negative,item
1604,c141,F,35,English,4,0,presents,FALSE,1,2392,positive,nothing
1605,c141,F,35,English,5,1,cars,FALSE,1,1939,negative,item
1606,c141,F,35,English,6,3,flowers,FALSE,1,2236,positive,nothing
1607,c141,F,35,English,7,0,keys,FALSE,1,2720,positive,nothing
1608,c141,F,35,English,8,1,phones,FALSE,1,2065,positive,nothing
1609,c141,F,35,English,9,2,cats,FALSE,1,1439,negative,item
1610,c141,F,35,English,10,2,cookies,FALSE,1,1747,positive,nothing
1611,c141,F,35,English,11,1,mittens,FALSE,1,1792,negative,item
1612,c141,F,35,English,12,3,dogs,TRUE,1,1327,positive,item
1613,c141,F,35,English,13,3,daisies,FALSE,1,1566,positive,nothing
1614,c141,F,35,English,14,2,crayons,TRUE,1,1440,negative,nothing
1615,c141,F,35,English,15,0,scissors,TRUE,1,1251,positive,item
1616,c141,F,35,English,16,0,apples,TRUE,1,1619,negative,nothing
1617,c141,F,35,English,17,0,fish,TRUE,1,1235,positive,item
1618,c141,F,35,English,18,0,pencils,FALSE,1,1095,negative,item
1619,c141,F,35,English,19,3,bows,TRUE,1,2131,negative,nothing
1620,c141,F,35,English,20,2,forks,FALSE,1,2150,positive,nothing
1621,c141,F,35,English,21,2,buckets,TRUE,1,1283,positive,item
1622,c141,F,35,English,22,1,purses,TRUE,1,1755,positive,item
1623,c141,F,35,English,23,1,carrots,TRUE,1,1440,positive,item
1624,c141,F,35,English,24,1,donuts,TRUE,1,1281,negative,nothing
1625,c141,F,35,English,25,1,bananas,FALSE,1,2020,positive,nothing
1626,c141,F,35,English,26,3,kites,FALSE,1,2629,negative,item
1627,c141,F,35,English,27,3,balloons,TRUE,1,1226,negative,nothing
1628,c141,F,35,English,28,2,lollipops,TRUE,1,1218,positive,item
1629,c141,F,35,English,29,3,shovels,FALSE,1,1246,negative,item
1630,c141,F,35,English,30,2,umbrellas,TRUE,1,2254,negative,nothing
1631,c141,F,35,English,31,0,cakes,TRUE,1,1672,negative,nothing
1632,c141,F,35,English,32,1,ice cream cones,TRUE,1,1600,negative,nothing
1665,c20,F,55,english,1,1,plants,FALSE,1,2954,positive,nothing
1666,c20,F,55,english,2,3,balloons,TRUE,1,1715,negative,nothing
1667,c20,F,55,english,3,2,kites,FALSE,1,2815,negative,item
1668,c20,F,55,english,4,1,cakes,TRUE,1,2251,negative,nothing
1669,c20,F,55,english,5,3,umbrellas,FALSE,1,2547,positive,nothing
1670,c20,F,55,english,6,0,scissors,TRUE,1,1984,positive,item
1671,c20,F,55,english,7,0,lollipops,TRUE,1,1359,positive,item
1672,c20,F,55,english,8,0,apples,TRUE,1,4969,negative,nothing
1673,c20,F,55,english,9,0,carrots,FALSE,1,2360,positive,nothing
1674,c20,F,55,english,10,2,cats,FALSE,1,2015,positive,nothing
1675,c20,F,55,english,11,3,purses,TRUE,1,2702,negative,nothing
1676,c20,F,55,english,12,2,donuts,FALSE,1,2199,negative,item
1677,c20,F,55,english,13,0,flowers,FALSE,1,2344,negative,item
1678,c20,F,55,english,14,3,keys,FALSE,1,2520,negative,item
1679,c20,F,55,english,15,1,daisies,FALSE,1,1719,negative,item
1680,c20,F,55,english,16,2,cookies,TRUE,1,1408,positive,item
1681,c20,F,55,english,17,1,pencils,FALSE,1,1796,positive,nothing
1682,c20,F,55,english,18,1,presents,TRUE,1,2159,positive,item
1683,c20,F,55,english,19,2,bows,TRUE,1,2921,negative,nothing
1684,c20,F,55,english,20,0,shovels,TRUE,1,2404,negative,nothing
1685,c20,F,55,english,21,1,cars,TRUE,1,1611,positive,item
1686,c20,F,55,english,22,1,fish,FALSE,1,2611,negative,item
1687,c20,F,55,english,23,0,ice cream cones,FALSE,1,1297,negative,item
1688,c20,F,55,english,24,0,forks,FALSE,1,2713,positive,nothing
1689,c20,F,55,english,25,2,crayons,TRUE,1,2109,positive,item
1690,c20,F,55,english,26,1,rainboots,TRUE,1,2031,negative,nothing
1691,c20,F,55,english,27,3,dogs,TRUE,1,1797,positive,item
1692,c20,F,55,english,28,3,guitars,FALSE,1,1551,positive,nothing
1693,c20,F,55,english,29,3,bananas,TRUE,1,2594,positive,item
1694,c20,F,55,english,30,2,phones,FALSE,1,2718,positive,nothing
1695,c20,F,55,english,31,3,mittens,FALSE,1,2032,negative,item
1696,c20,F,55,english,32,2,buckets,TRUE,1,2875,negative,nothing
1697,c62,F,35,English,1,3,carrots,TRUE,1,2100,negative,nothing
1698,c62,F,35,English,2,1,guitars,FALSE,1,1869,negative,item
1699,c62,F,35,English,3,2,scissors,TRUE,1,2089,negative,nothing
1700,c62,F,35,English,4,0,cats,TRUE,1,1719,negative,nothing
1701,c62,F,35,English,5,0,apples,TRUE,1,1450,positive,item
1702,c62,F,35,English,6,2,cakes,TRUE,1,1599,positive,item
1703,c62,F,35,English,7,1,plants,FALSE,1,1441,positive,nothing
1704,c62,F,35,English,8,1,mittens,FALSE,1,2169,positive,nothing
1705,c62,F,35,English,9,3,cars,FALSE,1,1883,negative,item
1706,c62,F,35,English,10,2,lollipops,FALSE,1,1442,positive,nothing
1707,c62,F,35,English,11,0,flowers,FALSE,1,1630,negative,item
1708,c62,F,35,English,12,1,bananas,TRUE,1,1071,positive,item
1709,c62,F,35,English,13,0,donuts,FALSE,1,1455,positive,nothing
1710,c62,F,35,English,14,2,dogs,TRUE,1,1045,positive,item
1711,c62,F,35,English,15,3,shovels,TRUE,1,1262,positive,item
1712,c62,F,35,English,16,1,cookies,TRUE,1,1236,negative,nothing
1713,c62,F,35,English,17,1,pencils,TRUE,1,1766,positive,item
1714,c62,F,35,English,18,1,presents,FALSE,1,1595,negative,item
1715,c62,F,35,English,19,3,kites,TRUE,1,1179,positive,item
1716,c62,F,35,English,20,3,forks,FALSE,1,1551,positive,nothing
1717,c62,F,35,English,21,3,buckets,TRUE,1,1375,negative,nothing
1718,c62,F,35,English,22,0,keys,TRUE,1,1496,positive,item
1719,c62,F,35,English,23,2,rainboots,FALSE,1,1728,negative,item
1720,c62,F,35,English,24,2,fish,FALSE,1,1798,positive,nothing
1721,c62,F,35,English,25,0,umbrellas,FALSE,1,1350,positive,nothing
1722,c62,F,35,English,26,3,balloons,FALSE,1,1413,negative,item
1723,c62,F,35,English,27,0,bows,TRUE,0,1056,negative,item
1724,c62,F,35,English,28,0,purses,TRUE,1,1592,negative,nothing
1725,c62,F,35,English,29,1,ice cream cones,TRUE,1,1283,negative,nothing
1726,c62,F,35,English,30,2,crayons,TRUE,1,978,negative,nothing
1727,c62,F,35,English,31,3,daisies,FALSE,1,1178,positive,nothing
1728,c62,F,35,English,32,2,phones,FALSE,1,1828,negative,item
1761,c73,F,35,English,1,0,bows,TRUE,1,2493,positive,item
1762,c73,F,35,English,2,1,cats,TRUE,1,2355,positive,item
1763,c73,F,35,English,3,3,fish,FALSE,1,2014,positive,nothing
1764,c73,F,35,English,4,0,rainboots,FALSE,1,1930,positive,nothing
1765,c73,F,35,English,5,0,flowers,FALSE,1,5015,negative,item
1766,c73,F,35,English,6,2,keys,FALSE,1,1849,positive,nothing
1767,c73,F,35,English,7,3,plants,FALSE,1,2515,negative,item
1768,c73,F,35,English,8,3,dogs,TRUE,1,2870,negative,nothing
1769,c73,F,35,English,9,2,lollipops,TRUE,1,1590,negative,nothing
1770,c73,F,35,English,10,2,donuts,TRUE,1,1014,negative,nothing
1771,c73,F,35,English,11,2,bananas,TRUE,1,1563,positive,item
1772,c73,F,35,English,12,1,forks,FALSE,1,2613,positive,nothing
1773,c73,F,35,English,13,0,apples,TRUE,1,2461,negative,nothing
1774,c73,F,35,English,14,3,crayons,TRUE,1,3017,positive,item
1775,c73,F,35,English,15,1,guitars,TRUE,1,1579,positive,item
1776,c73,F,35,English,16,3,cars,FALSE,1,1624,negative,item
1777,c73,F,35,English,17,2,pencils,FALSE,1,2386,negative,item
1778,c73,F,35,English,18,1,mittens,TRUE,1,2056,negative,nothing
1779,c73,F,35,English,19,1,buckets,FALSE,1,2033,positive,nothing
1780,c73,F,35,English,20,2,balloons,FALSE,1,1677,positive,nothing
1781,c73,F,35,English,21,3,purses,TRUE,1,5158,positive,item
1782,c73,F,35,English,22,1,cakes,TRUE,1,2516,negative,nothing
1783,c73,F,35,English,23,2,ice cream cones,FALSE,1,2225,negative,item
1784,c73,F,35,English,24,0,kites,FALSE,1,1122,negative,item
1785,c73,F,35,English,25,3,daisies,FALSE,1,1280,positive,nothing
1786,c73,F,35,English,26,0,cookies,TRUE,1,3932,positive,item
1787,c73,F,35,English,27,0,phones,TRUE,1,2558,negative,nothing
1788,c73,F,35,English,28,3,umbrellas,TRUE,1,1971,negative,nothing
1789,c73,F,35,English,29,1,scissors,FALSE,1,2030,negative,item
1790,c73,F,35,English,30,0,shovels,FALSE,1,4377,positive,nothing
1791,c73,F,35,English,31,1,presents,FALSE,1,2131,negative,item
1792,c73,F,35,English,32,2,carrots,TRUE,1,13558,positive,item
1825,c43,F,35,English,1,3,plants,FALSE,1,1410,positive,nothing
1826,c43,F,35,English,2,1,mittens,TRUE,1,1154,positive,item
1827,c43,F,35,English,3,2,cats,TRUE,1,1066,positive,item
1828,c43,F,35,English,4,3,lollipops,FALSE,1,1130,negative,item
1829,c43,F,35,English,5,3,daisies,TRUE,1,1233,positive,item
1830,c43,F,35,English,6,2,bananas,TRUE,1,1159,positive,item
1831,c43,F,35,English,7,2,keys,TRUE,0,1161,positive,nothing
1832,c43,F,35,English,8,2,umbrellas,FALSE,1,1199,negative,item
1833,c43,F,35,English,9,2,cookies,FALSE,1,1474,positive,nothing
1834,c43,F,35,English,10,2,presents,TRUE,1,1481,negative,nothing
1835,c43,F,35,English,11,1,shovels,FALSE,0,1510,negative,nothing
1836,c43,F,35,English,12,3,donuts,TRUE,1,1417,positive,item
1837,c43,F,35,English,13,1,rainboots,FALSE,1,1671,negative,item
1838,c43,F,35,English,14,1,balloons,TRUE,1,1280,positive,item
1839,c43,F,35,English,15,3,phones,FALSE,1,1333,negative,item
1840,c43,F,35,English,16,0,cakes,TRUE,1,1416,negative,nothing
1841,c43,F,35,English,17,2,apples,TRUE,1,2239,negative,nothing
1842,c43,F,35,English,18,0,forks,TRUE,1,1671,positive,item
1843,c43,F,35,English,19,1,guitars,FALSE,1,1312,positive,nothing
1844,c43,F,35,English,20,2,buckets,FALSE,1,2379,negative,item
1845,c43,F,35,English,21,0,cars,FALSE,1,1536,negative,item
1846,c43,F,35,English,22,0,fish,FALSE,1,2803,negative,item
1847,c43,F,35,English,23,0,dogs,TRUE,1,1362,positive,item
1848,c43,F,35,English,24,3,bows,TRUE,1,1245,negative,nothing
1849,c43,F,35,English,25,0,pencils,TRUE,1,3102,negative,nothing
1850,c43,F,35,English,26,1,flowers,TRUE,1,2075,negative,nothing
1851,c43,F,35,English,27,1,crayons,FALSE,1,1110,negative,item
1852,c43,F,35,English,28,0,scissors,FALSE,1,2237,positive,nothing
1853,c43,F,35,English,29,3,ice cream cones,TRUE,1,1354,negative,nothing
1854,c43,F,35,English,30,3,carrots,FALSE,1,1254,positive,nothing
1855,c43,F,35,English,31,0,kites,FALSE,1,1028,positive,nothing
1856,c43,F,35,English,32,1,purses,FALSE,1,1177,positive,nothing
1857,c208,F,35,english,1,3,carrots,TRUE,1,3175,negative,nothing
1858,c208,F,35,english,2,1,balloons,TRUE,1,2193,negative,nothing
1859,c208,F,35,english,3,0,bananas,FALSE,1,1594,positive,nothing
1860,c208,F,35,english,4,2,presents,FALSE,1,1428,positive,nothing
1861,c208,F,35,english,5,0,guitars,FALSE,1,1386,positive,nothing
1862,c208,F,35,english,6,1,keys,TRUE,1,1103,positive,item
1863,c208,F,35,english,7,3,mittens,FALSE,1,1530,positive,nothing
1864,c208,F,35,english,8,2,forks,FALSE,1,1637,positive,nothing
1865,c208,F,35,english,9,2,scissors,FALSE,1,1113,negative,item
1866,c208,F,35,english,10,3,pencils,TRUE,1,1121,positive,item
1867,c208,F,35,english,11,3,ice cream cones,TRUE,1,1283,negative,nothing
1868,c208,F,35,english,12,0,crayons,TRUE,1,984,positive,item
1869,c208,F,35,english,13,1,phones,FALSE,1,1402,positive,nothing
1870,c208,F,35,english,14,3,buckets,FALSE,1,1349,positive,nothing
1871,c208,F,35,english,15,1,bows,FALSE,1,1433,positive,nothing
1872,c208,F,35,english,16,2,donuts,TRUE,1,1716,negative,nothing
1873,c208,F,35,english,17,3,cookies,TRUE,0,1435,negative,item
1874,c208,F,35,english,18,3,flowers,FALSE,1,1300,negative,item
1875,c208,F,35,english,19,2,fish,FALSE,1,1539,negative,item
1876,c208,F,35,english,20,2,purses,TRUE,1,1233,negative,nothing
1877,c208,F,35,english,21,1,plants,TRUE,1,1322,positive,item
1878,c208,F,35,english,22,0,cats,TRUE,1,1176,negative,nothing
1879,c208,F,35,english,23,1,rainboots,TRUE,0,1220,negative,item
1880,c208,F,35,english,24,0,shovels,TRUE,1,1628,negative,nothing
1881,c208,F,35,english,25,2,kites,TRUE,1,985,positive,item
1882,c208,F,35,english,26,3,lollipops,TRUE,1,1245,positive,item
1883,c208,F,35,english,27,2,apples,TRUE,1,796,positive,item
1884,c208,F,35,english,28,1,cars,FALSE,1,2122,negative,item
1885,c208,F,35,english,29,1,umbrellas,TRUE,1,1282,negative,nothing
1886,c208,F,35,english,30,0,cakes,TRUE,1,1175,positive,item
1887,c208,F,35,english,31,0,daisies,FALSE,1,1086,negative,item
1888,c208,F,35,english,32,0,dogs,FALSE,1,938,negative,item
1921,c174,F,35,English,1,3,bows,TRUE,1,2346,negative,nothing
1922,c174,F,35,English,2,0,cakes,FALSE,1,1142,negative,item
1923,c174,F,35,English,3,2,presents,FALSE,1,1173,negative,item
1924,c174,F,35,English,4,0,cats,FALSE,1,1295,positive,nothing
1925,c174,F,35,English,5,2,scissors,FALSE,1,1297,positive,nothing
1926,c174,F,35,English,6,3,plants,FALSE,1,735,positive,nothing
1927,c174,F,35,English,7,2,phones,TRUE,1,1752,positive,item
1928,c174,F,35,English,8,1,purses,FALSE,0,1059,negative,nothing
1929,c174,F,35,English,9,2,apples,FALSE,1,2487,negative,item
1930,c174,F,35,English,10,3,lollipops,FALSE,1,1265,positive,nothing
1931,c174,F,35,English,11,2,shovels,TRUE,1,3281,negative,nothing
1932,c174,F,35,English,12,0,cookies,TRUE,1,2995,negative,nothing
1933,c174,F,35,English,13,3,carrots,FALSE,1,1720,negative,item
1934,c174,F,35,English,14,2,rainboots,TRUE,1,2406,negative,nothing
1935,c174,F,35,English,15,1,umbrellas,FALSE,1,1188,positive,nothing
1936,c174,F,35,English,16,0,guitars,FALSE,1,1047,negative,item
1937,c174,F,35,English,17,1,ice cream cones,FALSE,1,1047,positive,nothing
1938,c174,F,35,English,18,1,bananas,FALSE,1,719,negative,item
1939,c174,F,35,English,19,0,keys,TRUE,1,1641,positive,item
1940,c174,F,35,English,20,3,crayons,TRUE,1,2374,positive,item
1941,c174,F,35,English,21,2,balloons,TRUE,1,1532,positive,item
1942,c174,F,35,English,22,2,kites,FALSE,1,1049,positive,nothing
1943,c174,F,35,English,23,3,pencils,TRUE,1,1128,positive,item
1944,c174,F,35,English,24,0,fish,TRUE,1,7300,positive,item
1945,c174,F,35,English,25,1,cars,TRUE,1,2532,negative,nothing
1946,c174,F,35,English,26,0,buckets,FALSE,1,2594,positive,nothing
1947,c174,F,35,English,27,1,daisies,FALSE,1,1155,negative,item
1948,c174,F,35,English,28,3,dogs,FALSE,1,1265,negative,item
1949,c174,F,35,English,29,0,donuts,FALSE,0,780,negative,nothing
1950,c174,F,35,English,30,1,mittens,TRUE,1,1315,positive,item
1951,c174,F,35,English,31,1,forks,TRUE,1,1297,positive,item
1952,c174,F,35,English,32,3,flowers,TRUE,1,1235,negative,nothing
1953,c212,F,45,English,1,0,cats,TRUE,1,1829,positive,item
1954,c212,F,45,English,2,0,phones,TRUE,1,3221,negative,nothing
1955,c212,F,45,English,3,0,crayons,TRUE,1,1358,positive,item
1956,c212,F,45,English,4,3,buckets,FALSE,1,1939,negative,item
1957,c212,F,45,English,5,1,plants,TRUE,1,905,positive,item
1958,c212,F,45,English,6,2,guitars,TRUE,1,780,positive,item
1959,c212,F,45,English,7,0,keys,FALSE,1,1126,negative,item
1960,c212,F,45,English,8,1,ice cream cones,FALSE,1,1411,positive,nothing
1961,c212,F,45,English,9,2,apples,FALSE,1,1033,negative,item
1962,c212,F,45,English,10,0,flowers,FALSE,1,952,negative,item
1963,c212,F,45,English,11,1,cars,TRUE,1,1279,negative,nothing
1964,c212,F,45,English,12,2,pencils,FALSE,1,922,positive,nothing
1965,c212,F,45,English,13,3,daisies,TRUE,1,1016,positive,item
1966,c212,F,45,English,14,3,purses,TRUE,1,1813,negative,nothing
1967,c212,F,45,English,15,2,cookies,FALSE,1,983,positive,nothing
1968,c212,F,45,English,16,3,cakes,FALSE,1,1144,negative,item
1969,c212,F,45,English,17,2,kites,TRUE,1,906,positive,item
1970,c212,F,45,English,18,2,lollipops,FALSE,1,875,negative,item
1971,c212,F,45,English,19,3,mittens,FALSE,1,1047,positive,nothing
1972,c212,F,45,English,20,3,scissors,FALSE,1,1044,positive,nothing
1973,c212,F,45,English,21,2,presents,TRUE,1,1046,negative,nothing
1974,c212,F,45,English,22,0,bows,FALSE,1,1877,positive,nothing
1975,c212,F,45,English,23,1,donuts,FALSE,1,954,negative,item
1976,c212,F,45,English,24,1,forks,FALSE,1,720,positive,nothing
1977,c212,F,45,English,25,1,balloons,TRUE,0,1237,negative,item
1978,c212,F,45,English,26,1,fish,TRUE,1,1155,positive,item
1979,c212,F,45,English,27,1,bananas,TRUE,1,1126,negative,nothing
1980,c212,F,45,English,28,0,shovels,TRUE,1,1707,negative,nothing
1981,c212,F,45,English,29,3,carrots,TRUE,1,1656,positive,item
1982,c212,F,45,English,30,3,dogs,TRUE,1,1187,negative,nothing
1983,c212,F,45,English,31,0,umbrellas,FALSE,1,1394,positive,nothing
1984,c212,F,45,English,32,2,rainboots,TRUE,1,1172,negative,nothing
1985,c167,F,25,English,1,3,lollipops,FALSE,1,1169,positive,nothing
1986,c167,F,25,English,2,2,scissors,FALSE,1,716,positive,nothing
1987,c167,F,25,English,3,2,pencils,FALSE,1,753,positive,nothing
1988,c167,F,25,English,4,3,rainboots,TRUE,1,815,positive,item
1989,c167,F,25,English,5,0,presents,TRUE,1,453,positive,item
1990,c167,F,25,English,6,0,guitars,FALSE,1,685,positive,nothing
1991,c167,F,25,English,7,3,umbrellas,FALSE,1,615,negative,item
1992,c167,F,25,English,8,3,crayons,FALSE,1,686,positive,nothing
1993,c167,F,25,English,9,1,donuts,FALSE,1,663,positive,nothing
1994,c167,F,25,English,10,0,plants,TRUE,1,501,positive,item
1995,c167,F,25,English,11,0,cookies,FALSE,1,578,negative,item
1996,c167,F,25,English,12,2,bananas,FALSE,1,499,negative,item
1997,c167,F,25,English,13,0,cars,TRUE,1,949,negative,nothing
1998,c167,F,25,English,14,3,phones,TRUE,1,853,negative,nothing
1999,c167,F,25,English,15,2,ice cream cones,TRUE,1,918,positive,item
2000,c167,F,25,English,16,2,balloons,TRUE,1,484,negative,nothing
2001,c167,F,25,English,17,2,forks,TRUE,1,640,positive,item
2002,c167,F,25,English,18,1,bows,FALSE,1,532,positive,nothing
2003,c167,F,25,English,19,1,cats,TRUE,1,664,negative,nothing
2004,c167,F,25,English,20,0,mittens,FALSE,1,834,positive,nothing
2005,c167,F,25,English,21,3,keys,TRUE,1,553,negative,nothing
2006,c167,F,25,English,22,3,shovels,TRUE,1,585,positive,item
2007,c167,F,25,English,23,2,buckets,TRUE,1,486,negative,nothing
2008,c167,F,25,English,24,2,carrots,FALSE,1,601,negative,item
2009,c167,F,25,English,25,1,kites,FALSE,1,586,negative,item
2010,c167,F,25,English,26,0,flowers,FALSE,0,748,negative,nothing
2011,c167,F,25,English,27,1,purses,FALSE,1,704,negative,item
2012,c167,F,25,English,28,1,fish,TRUE,1,602,positive,item
2013,c167,F,25,English,29,1,apples,TRUE,1,554,positive,item
2014,c167,F,25,English,30,0,cakes,FALSE,1,669,negative,item
2015,c167,F,25,English,31,3,daisies,FALSE,1,1034,negative,item
2016,c167,F,25,English,32,1,dogs,TRUE,1,803,negative,nothing
2017,c115,F,45,English,1,0,crayons,FALSE,0,926,negative,nothing
2018,c115,F,45,English,2,2,purses,FALSE,1,1590,positive,nothing
2019,c115,F,45,English,3,1,bows,TRUE,0,1300,negative,item
2020,c115,F,45,English,4,1,guitars,FALSE,1,1407,positive,nothing
2021,c115,F,45,English,5,3,cookies,TRUE,0,570,negative,item
2022,c115,F,45,English,6,3,kites,TRUE,1,1254,positive,item
2023,c115,F,45,English,7,2,keys,TRUE,1,930,positive,item
2024,c115,F,45,English,8,2,daisies,FALSE,1,824,negative,item
2025,c115,F,45,English,9,0,flowers,TRUE,1,645,positive,item
2026,c115,F,45,English,10,1,forks,TRUE,1,809,positive,item
2027,c115,F,45,English,11,0,apples,FALSE,1,1152,negative,item
2028,c115,F,45,English,12,1,cars,FALSE,1,1037,negative,item
2029,c115,F,45,English,13,1,dogs,FALSE,0,1141,negative,nothing
2030,c115,F,45,English,14,0,shovels,FALSE,1,1328,positive,nothing
2031,c115,F,45,English,15,0,ice cream cones,FALSE,1,1453,positive,nothing
2032,c115,F,45,English,16,0,balloons,TRUE,1,1599,positive,item
2033,c115,F,45,English,17,3,buckets,TRUE,1,1690,negative,nothing
2034,c115,F,45,English,18,3,donuts,FALSE,0,1314,negative,nothing
2035,c115,F,45,English,19,2,cakes,FALSE,0,1207,negative,nothing
2036,c115,F,45,English,20,3,pencils,FALSE,1,1574,negative,item
2037,c115,F,45,English,21,0,umbrellas,TRUE,1,1433,negative,nothing
2038,c115,F,45,English,22,1,carrots,FALSE,1,966,positive,nothing
2039,c115,F,45,English,23,3,presents,FALSE,1,673,positive,nothing
2040,c115,F,45,English,24,2,plants,TRUE,1,1388,negative,nothing
2041,c115,F,45,English,25,1,bananas,TRUE,1,1246,positive,item
2042,c115,F,45,English,26,0,lollipops,FALSE,1,1431,negative,item
2043,c115,F,45,English,27,1,scissors,TRUE,1,1164,negative,nothing
2044,c115,F,45,English,28,2,fish,TRUE,0,1525,negative,item
2045,c115,F,45,English,29,3,mittens,FALSE,1,1293,positive,nothing
2046,c115,F,45,English,30,2,rainboots,FALSE,1,1047,positive,nothing
2047,c115,F,45,English,31,2,phones,TRUE,1,1192,positive,item
2048,c115,F,45,English,32,3,cats,TRUE,1,2023,positive,item
2081,c71,F,55,English,1,0,bows,TRUE,1,1674,positive,item
2082,c71,F,55,English,2,0,shovels,FALSE,1,2304,negative,item
2083,c71,F,55,English,3,3,lollipops,TRUE,1,1901,positive,item
2084,c71,F,55,English,4,3,donuts,TRUE,1,2000,negative,nothing
2085,c71,F,55,English,5,0,cookies,TRUE,1,1310,positive,item
2086,c71,F,55,English,6,0,apples,FALSE,1,853,negative,item
2087,c71,F,55,English,7,2,ice cream cones,TRUE,1,1645,positive,item
2088,c71,F,55,English,8,2,umbrellas,FALSE,1,1550,positive,nothing
2089,c71,F,55,English,9,0,cats,TRUE,1,1538,negative,nothing
2090,c71,F,55,English,10,3,pencils,FALSE,1,1087,positive,nothing
2091,c71,F,55,English,11,2,plants,FALSE,1,1159,negative,item
2092,c71,F,55,English,12,1,flowers,FALSE,1,1124,negative,item
2093,c71,F,55,English,13,1,cakes,FALSE,1,1067,positive,nothing
2094,c71,F,55,English,14,2,fish,TRUE,1,831,positive,item
2095,c71,F,55,English,15,3,guitars,TRUE,1,1454,negative,nothing
2096,c71,F,55,English,16,3,forks,TRUE,1,817,positive,item
2097,c71,F,55,English,17,0,purses,FALSE,1,1739,positive,nothing
2098,c71,F,55,English,18,1,phones,TRUE,1,908,positive,item
2099,c71,F,55,English,19,3,cars,FALSE,1,1044,positive,nothing
2100,c71,F,55,English,20,1,scissors,TRUE,1,1313,negative,nothing
2101,c71,F,55,English,21,2,dogs,FALSE,1,1067,negative,item
2102,c71,F,55,English,22,2,buckets,FALSE,1,1064,positive,nothing
2103,c71,F,55,English,23,0,bananas,FALSE,1,1250,positive,nothing
2104,c71,F,55,English,24,1,carrots,FALSE,1,1382,negative,item
2105,c71,F,55,English,25,1,kites,FALSE,1,1462,positive,nothing
2106,c71,F,55,English,26,3,balloons,FALSE,1,1063,negative,item
2107,c71,F,55,English,27,1,rainboots,TRUE,1,1056,positive,item
2108,c71,F,55,English,28,2,keys,FALSE,0,861,negative,nothing
2109,c71,F,55,English,29,3,mittens,FALSE,1,1123,negative,item
2110,c71,F,55,English,30,1,presents,TRUE,1,1775,negative,nothing
2111,c71,F,55,English,31,2,daisies,TRUE,1,1539,negative,nothing
2112,c71,F,55,English,32,0,crayons,TRUE,1,1571,negative,nothing
2177,c168,F,55,english,1,3,carrots,FALSE,1,3062,negative,item
2178,c168,F,55,english,2,1,cakes,TRUE,1,1882,negative,nothing
2179,c168,F,55,english,3,0,apples,FALSE,1,2090,negative,item
2180,c168,F,55,english,4,0,crayons,TRUE,1,4202,negative,nothing
2181,c168,F,55,english,5,1,dogs,TRUE,1,2610,positive,item
2182,c168,F,55,english,6,2,daisies,FALSE,1,2268,positive,nothing
2183,c168,F,55,english,7,1,keys,FALSE,1,2322,negative,item
2184,c168,F,55,english,8,2,flowers,TRUE,1,2134,positive,item
2185,c168,F,55,english,9,0,bananas,FALSE,1,2106,positive,nothing
2186,c168,F,55,english,10,0,purses,TRUE,1,2301,negative,nothing
2187,c168,F,55,english,11,0,donuts,FALSE,1,1613,positive,nothing
2188,c168,F,55,english,12,3,plants,TRUE,1,1817,positive,item
2189,c168,F,55,english,13,2,umbrellas,TRUE,1,1611,positive,item
2190,c168,F,55,english,14,1,fish,TRUE,1,1743,positive,item
2191,c168,F,55,english,15,2,scissors,FALSE,1,1457,negative,item
2192,c168,F,55,english,16,0,cars,TRUE,1,1418,positive,item
2193,c168,F,55,english,17,3,ice cream cones,TRUE,1,1861,positive,item
2194,c168,F,55,english,18,3,shovels,TRUE,1,2020,negative,nothing
2195,c168,F,55,english,19,2,lollipops,FALSE,1,1812,negative,item
2196,c168,F,55,english,20,1,pencils,FALSE,1,1811,positive,nothing
2197,c168,F,55,english,21,3,mittens,FALSE,1,1943,positive,nothing
2198,c168,F,55,english,22,3,forks,TRUE,1,2117,negative,nothing
2199,c168,F,55,english,23,1,cats,TRUE,1,2012,negative,nothing
2200,c168,F,55,english,24,1,guitars,FALSE,1,2397,negative,item
2201,c168,F,55,english,25,0,kites,FALSE,1,1650,negative,item
2202,c168,F,55,english,26,3,phones,FALSE,1,1963,positive,nothing
2203,c168,F,55,english,27,2,rainboots,TRUE,1,2096,negative,nothing
2204,c168,F,55,english,28,2,bows,TRUE,1,2632,negative,nothing
2205,c168,F,55,english,29,1,cookies,FALSE,1,2103,positive,nothing
2206,c168,F,55,english,30,2,presents,FALSE,1,1709,positive,nothing
2207,c168,F,55,english,31,0,buckets,TRUE,1,1202,positive,item
2208,c168,F,55,english,32,3,balloons,FALSE,1,1695,negative,item
2305,c14,F,65,english,1,3,purses,TRUE,1,2848,positive,item
2306,c14,F,65,english,2,1,cookies,TRUE,1,1465,positive,item
2307,c14,F,65,english,3,3,kites,TRUE,1,1388,negative,nothing
2308,c14,F,65,english,4,3,pencils,FALSE,1,2039,negative,item
2309,c14,F,65,english,5,2,cats,FALSE,1,1472,positive,nothing
2310,c14,F,65,english,6,0,dogs,FALSE,1,1400,positive,nothing
2311,c14,F,65,english,7,0,carrots,FALSE,1,1268,negative,item
2312,c14,F,65,english,8,3,bananas,FALSE,1,1232,positive,nothing
2313,c14,F,65,english,9,1,presents,TRUE,1,1169,positive,item
2314,c14,F,65,english,10,1,ice cream cones,FALSE,1,1676,positive,nothing
2315,c14,F,65,english,11,1,shovels,FALSE,1,1289,negative,item
2316,c14,F,65,english,12,3,plants,FALSE,1,1085,negative,item
2317,c14,F,65,english,13,3,guitars,FALSE,1,1281,positive,nothing
2318,c14,F,65,english,14,2,buckets,TRUE,1,1308,negative,nothing
2319,c14,F,65,english,15,0,cakes,TRUE,1,2361,positive,item
2320,c14,F,65,english,16,0,bows,TRUE,0,1828,negative,item
2321,c14,F,65,english,17,1,flowers,FALSE,1,2056,negative,item
2322,c14,F,65,english,18,2,lollipops,FALSE,1,1443,positive,nothing
2323,c14,F,65,english,19,1,keys,TRUE,1,1306,negative,nothing
2324,c14,F,65,english,20,3,fish,TRUE,1,1576,positive,item
2325,c14,F,65,english,21,2,crayons,TRUE,1,1852,negative,nothing
2326,c14,F,65,english,22,2,daisies,TRUE,1,1878,positive,item
2327,c14,F,65,english,23,3,balloons,TRUE,1,1551,negative,nothing
2328,c14,F,65,english,24,2,forks,TRUE,1,1532,positive,item
2329,c14,F,65,english,25,2,phones,FALSE,1,1193,negative,item
2330,c14,F,65,english,26,0,donuts,TRUE,1,1759,negative,nothing
2331,c14,F,65,english,27,0,apples,FALSE,1,2012,positive,nothing
2332,c14,F,65,english,28,1,scissors,TRUE,1,1526,negative,nothing
2333,c14,F,65,english,29,1,cars,FALSE,1,1232,positive,nothing
2334,c14,F,65,english,30,0,umbrellas,TRUE,1,1726,negative,nothing
2335,c14,F,65,english,31,0,rainboots,TRUE,1,1773,positive,item
2336,c14,F,65,english,32,2,mittens,FALSE,1,988,negative,item
2401,c26,F,35,English,1,3,scissors,FALSE,1,982,positive,nothing
2402,c26,F,35,English,2,3,rainboots,TRUE,1,1266,negative,nothing
2403,c26,F,35,English,3,0,lollipops,FALSE,1,1042,positive,nothing
2404,c26,F,35,English,4,3,cars,FALSE,1,1479,negative,item
2405,c26,F,35,English,5,1,plants,FALSE,1,1073,positive,nothing
2406,c26,F,35,English,6,2,bananas,FALSE,1,1218,positive,nothing
2407,c26,F,35,English,7,1,pencils,TRUE,1,614,positive,item
2408,c26,F,35,English,8,1,cakes,TRUE,1,1206,negative,nothing
2409,c26,F,35,English,9,1,cookies,TRUE,1,777,positive,item
2410,c26,F,35,English,10,0,bows,FALSE,1,913,negative,item
2411,c26,F,35,English,11,3,purses,TRUE,1,1461,positive,item
2412,c26,F,35,English,12,1,keys,FALSE,1,1254,negative,item
2413,c26,F,35,English,13,1,crayons,TRUE,1,1267,negative,nothing
2414,c26,F,35,English,14,2,forks,TRUE,1,1435,positive,item
2415,c26,F,35,English,15,0,ice cream cones,TRUE,1,2019,positive,item
2416,c26,F,35,English,16,0,buckets,TRUE,1,874,positive,item
2417,c26,F,35,English,17,2,phones,FALSE,0,1123,negative,nothing
2418,c26,F,35,English,18,0,guitars,FALSE,1,1240,positive,nothing
2419,c26,F,35,English,19,3,daisies,FALSE,1,1112,negative,item
2420,c26,F,35,English,20,2,carrots,TRUE,1,676,positive,item
2421,c26,F,35,English,21,1,mittens,FALSE,1,926,negative,item
2422,c26,F,35,English,22,2,shovels,FALSE,1,2428,negative,item
2423,c26,F,35,English,23,0,flowers,TRUE,1,1847,negative,nothing
2424,c26,F,35,English,24,2,apples,FALSE,0,768,negative,nothing
2425,c26,F,35,English,25,2,donuts,FALSE,1,1564,negative,item
2426,c26,F,35,English,26,2,fish,FALSE,1,1060,positive,nothing
2427,c26,F,35,English,27,1,umbrellas,FALSE,1,1006,positive,nothing
2428,c26,F,35,English,28,3,balloons,TRUE,1,916,negative,nothing
2429,c26,F,35,English,29,3,cats,TRUE,1,718,positive,item
2430,c26,F,35,English,30,0,presents,FALSE,0,1202,negative,nothing
2431,c26,F,35,English,31,0,dogs,FALSE,1,911,negative,item
2432,c26,F,35,English,32,3,kites,FALSE,1,1132,positive,nothing
2433,c67,F,35,English,1,2,carrots,FALSE,1,4283,negative,item
2434,c67,F,35,English,2,2,purses,FALSE,1,1445,negative,item
2435,c67,F,35,English,3,0,fish,FALSE,1,4365,positive,nothing
2436,c67,F,35,English,4,1,keys,TRUE,1,2258,negative,nothing
2437,c67,F,35,English,5,1,cats,FALSE,1,870,positive,nothing
2438,c67,F,35,English,6,3,shovels,TRUE,1,1734,negative,nothing
2439,c67,F,35,English,7,2,pencils,TRUE,1,2390,positive,item
2440,c67,F,35,English,8,0,dogs,TRUE,0,2046,negative,item
2441,c67,F,35,English,9,3,daisies,FALSE,1,996,negative,item
2442,c67,F,35,English,10,0,scissors,FALSE,1,1771,negative,item
2443,c67,F,35,English,11,1,plants,FALSE,1,3199,negative,item
2444,c67,F,35,English,12,1,presents,FALSE,1,1376,positive,nothing
2445,c67,F,35,English,13,1,ice cream cones,FALSE,1,999,negative,item
2446,c67,F,35,English,14,0,bows,TRUE,1,1708,positive,item
2447,c67,F,35,English,15,3,cakes,TRUE,1,1418,positive,item
2448,c67,F,35,English,16,1,mittens,TRUE,1,1689,positive,item
2449,c67,F,35,English,17,3,flowers,FALSE,1,2287,positive,nothing
2450,c67,F,35,English,18,3,bananas,FALSE,1,2111,positive,nothing
2451,c67,F,35,English,19,1,guitars,TRUE,1,1393,negative,nothing
2452,c67,F,35,English,20,3,cookies,TRUE,1,772,positive,item
2453,c67,F,35,English,21,2,balloons,TRUE,1,2103,negative,nothing
2454,c67,F,35,English,22,0,buckets,FALSE,0,1551,negative,nothing
2455,c67,F,35,English,23,3,donuts,FALSE,1,997,negative,item
2456,c67,F,35,English,24,0,umbrellas,TRUE,1,1993,negative,nothing
2457,c67,F,35,English,25,0,kites,TRUE,1,1832,positive,item
2458,c67,F,35,English,26,2,crayons,TRUE,1,3145,negative,nothing
2459,c67,F,35,English,27,2,phones,FALSE,1,1171,positive,nothing
2460,c67,F,35,English,28,1,cars,TRUE,1,1287,positive,item
2461,c67,F,35,English,29,2,apples,FALSE,1,1559,positive,nothing
2462,c67,F,35,English,30,0,forks,FALSE,1,2719,positive,nothing
2463,c67,F,35,English,31,2,rainboots,TRUE,1,4206,positive,item
2464,c67,F,35,English,32,3,lollipops,TRUE,1,2090,negative,nothing
2465,c129,F,65,english,1,0,carrots,TRUE,1,2562,positive,item
2466,c129,F,65,english,2,2,bows,FALSE,1,3124,positive,nothing
2467,c129,F,65,english,3,3,forks,FALSE,1,1243,positive,nothing
2468,c129,F,65,english,4,2,mittens,TRUE,1,2281,negative,nothing
2469,c129,F,65,english,5,1,daisies,TRUE,1,1181,positive,item
2470,c129,F,65,english,6,3,ice cream cones,TRUE,1,1241,negative,nothing
2471,c129,F,65,english,7,1,rainboots,FALSE,1,1969,negative,item
2472,c129,F,65,english,8,2,bananas,FALSE,1,1713,negative,item
2473,c129,F,65,english,9,2,apples,FALSE,1,1788,positive,nothing
2474,c129,F,65,english,10,2,cats,FALSE,1,1944,negative,item
2475,c129,F,65,english,11,3,shovels,FALSE,1,1682,positive,nothing
2476,c129,F,65,english,12,3,dogs,TRUE,1,836,positive,item
2477,c129,F,65,english,13,3,umbrellas,TRUE,1,2397,negative,nothing
2478,c129,F,65,english,14,3,plants,FALSE,1,1569,negative,item
2479,c129,F,65,english,15,1,scissors,FALSE,1,1481,negative,item
2480,c129,F,65,english,16,0,cakes,TRUE,1,1688,positive,item
2481,c129,F,65,english,17,1,pencils,FALSE,1,1498,positive,nothing
2482,c129,F,65,english,18,0,crayons,TRUE,1,1882,negative,nothing
2483,c129,F,65,english,19,2,donuts,TRUE,1,2148,negative,nothing
2484,c129,F,65,english,20,0,fish,FALSE,1,1772,negative,item
2485,c129,F,65,english,21,1,flowers,FALSE,1,3188,positive,nothing
2486,c129,F,65,english,22,2,phones,TRUE,1,1620,positive,item
2487,c129,F,65,english,23,1,cookies,TRUE,1,1428,negative,nothing
2488,c129,F,65,english,24,0,buckets,FALSE,1,2684,positive,nothing
2489,c129,F,65,english,25,0,guitars,FALSE,1,1884,positive,nothing
2490,c129,F,65,english,26,2,lollipops,TRUE,1,2113,positive,item
2491,c129,F,65,english,27,3,kites,FALSE,1,1425,negative,item
2492,c129,F,65,english,28,3,keys,TRUE,1,1245,positive,item
2493,c129,F,65,english,29,0,presents,TRUE,1,1835,negative,nothing
2494,c129,F,65,english,30,1,balloons,TRUE,1,2156,negative,nothing
2495,c129,F,65,english,31,1,purses,TRUE,1,2457,positive,item
2496,c129,F,65,english,32,0,cars,FALSE,1,1808,negative,item
2497,c39,F,25,English,1,1,scissors,TRUE,1,989,positive,item
2498,c39,F,25,English,2,0,ice cream cones,FALSE,1,950,positive,nothing
2499,c39,F,25,English,3,0,forks,FALSE,0,1788,negative,nothing
2500,c39,F,25,English,4,1,bows,FALSE,1,1000,negative,item
2501,c39,F,25,English,5,3,guitars,FALSE,1,920,positive,nothing
2502,c39,F,25,English,6,3,cars,TRUE,1,866,negative,nothing
2503,c39,F,25,English,7,1,kites,TRUE,1,937,negative,nothing
2504,c39,F,25,English,8,1,pencils,TRUE,1,713,negative,nothing
2505,c39,F,25,English,9,2,donuts,TRUE,1,1288,positive,item
2506,c39,F,25,English,10,3,bananas,FALSE,1,717,negative,item
2507,c39,F,25,English,11,3,dogs,FALSE,1,789,negative,item
2508,c39,F,25,English,12,3,carrots,TRUE,0,969,positive,nothing
2509,c39,F,25,English,13,0,phones,FALSE,1,631,negative,item
2510,c39,F,25,English,14,2,cakes,FALSE,1,1067,positive,nothing
2511,c39,F,25,English,15,1,plants,TRUE,1,707,positive,item
2512,c39,F,25,English,16,2,mittens,FALSE,1,725,negative,item
2513,c39,F,25,English,17,0,lollipops,TRUE,1,1175,negative,nothing
2514,c39,F,25,English,18,0,shovels,FALSE,1,649,negative,item
2515,c39,F,25,English,19,3,flowers,TRUE,1,872,positive,item
2516,c39,F,25,English,20,3,crayons,TRUE,1,577,positive,item
2517,c39,F,25,English,21,1,cookies,FALSE,1,721,positive,nothing
2518,c39,F,25,English,22,1,purses,FALSE,1,748,positive,nothing
2519,c39,F,25,English,23,0,buckets,FALSE,1,777,positive,nothing
2520,c39,F,25,English,24,2,cats,TRUE,1,953,positive,item
2521,c39,F,25,English,25,2,fish,FALSE,0,761,negative,nothing
2522,c39,F,25,English,26,3,daisies,TRUE,1,1008,negative,nothing
2523,c39,F,25,English,27,0,presents,TRUE,1,644,positive,item
2524,c39,F,25,English,28,2,umbrellas,TRUE,1,948,negative,nothing
2525,c39,F,25,English,29,1,rainboots,FALSE,1,1000,negative,item
2526,c39,F,25,English,30,2,apples,FALSE,1,925,positive,nothing
2527,c39,F,25,English,31,2,keys,FALSE,1,1357,negative,item
2528,c39,F,25,English,32,0,balloons,TRUE,1,658,positive,item
2529,c161,F,25,English,1,3,flowers,TRUE,1,1128,negative,nothing
2530,c161,F,25,English,2,2,mittens,TRUE,1,934,positive,item
2531,c161,F,25,English,3,3,keys,FALSE,1,883,positive,nothing
2532,c161,F,25,English,4,0,scissors,TRUE,1,803,positive,item
2533,c161,F,25,English,5,1,cakes,TRUE,1,755,positive,item
2534,c161,F,25,English,6,3,purses,FALSE,1,728,negative,item
2535,c161,F,25,English,7,1,crayons,TRUE,1,701,negative,nothing
2536,c161,F,25,English,8,1,cats,FALSE,1,603,negative,item
2537,c161,F,25,English,9,2,apples,TRUE,1,839,negative,nothing
2538,c161,F,25,English,10,3,balloons,FALSE,1,886,positive,nothing
2539,c161,F,25,English,11,1,bananas,FALSE,1,940,negative,item
2540,c161,F,25,English,12,2,donuts,TRUE,1,789,negative,nothing
2541,c161,F,25,English,13,1,phones,FALSE,1,1125,positive,nothing
2542,c161,F,25,English,14,2,rainboots,FALSE,1,949,positive,nothing
2543,c161,F,25,English,15,0,kites,TRUE,1,421,positive,item
2544,c161,F,25,English,16,3,dogs,TRUE,1,443,positive,item
2545,c161,F,25,English,17,0,bows,FALSE,1,2203,positive,nothing
2546,c161,F,25,English,18,3,buckets,TRUE,1,684,negative,nothing
2547,c161,F,25,English,19,1,cookies,TRUE,1,713,negative,nothing
2548,c161,F,25,English,20,0,forks,FALSE,1,861,positive,nothing
2549,c161,F,25,English,21,3,plants,FALSE,1,666,negative,item
2550,c161,F,25,English,22,0,umbrellas,FALSE,1,562,negative,item
2551,c161,F,25,English,23,2,carrots,FALSE,1,642,negative,item
2552,c161,F,25,English,24,2,lollipops,FALSE,1,852,positive,nothing
2553,c161,F,25,English,25,3,shovels,TRUE,1,607,positive,item
2554,c161,F,25,English,26,1,presents,TRUE,1,840,positive,item
2555,c161,F,25,English,27,0,pencils,FALSE,1,733,negative,item
2556,c161,F,25,English,28,2,guitars,FALSE,1,683,negative,item
2557,c161,F,25,English,29,2,ice cream cones,TRUE,1,689,positive,item
2558,c161,F,25,English,30,1,fish,FALSE,1,937,positive,nothing
2559,c161,F,25,English,31,0,daisies,TRUE,1,729,negative,nothing
2560,c161,F,25,English,32,0,cars,TRUE,1,965,negative,nothing
2785,c178,F,35,english,1,2,umbrellas,FALSE,1,905,positive,nothing
2786,c178,F,35,english,2,0,forks,FALSE,1,1279,negative,item
2787,c178,F,35,english,3,2,balloons,TRUE,1,856,negative,nothing
2788,c178,F,35,english,4,1,bananas,TRUE,1,778,positive,item
2789,c178,F,35,english,5,1,lollipops,FALSE,1,751,positive,nothing
2790,c178,F,35,english,6,3,carrots,TRUE,1,554,positive,item
2791,c178,F,35,english,7,0,shovels,FALSE,1,679,positive,nothing
2792,c178,F,35,english,8,1,crayons,FALSE,1,729,positive,nothing
2793,c178,F,35,english,9,0,cakes,TRUE,1,452,positive,item
2794,c178,F,35,english,10,3,apples,TRUE,1,734,negative,nothing
2795,c178,F,35,english,11,3,cookies,FALSE,0,680,negative,nothing
2796,c178,F,35,english,12,2,fish,TRUE,0,771,negative,item
2797,c178,F,35,english,13,3,bows,FALSE,1,957,negative,item
2798,c178,F,35,english,14,2,kites,TRUE,1,779,negative,nothing
2799,c178,F,35,english,15,0,daisies,TRUE,1,1107,negative,nothing
2800,c178,F,35,english,16,3,cars,FALSE,1,867,positive,nothing
2801,c178,F,35,english,17,0,purses,TRUE,1,876,positive,item
2802,c178,F,35,english,18,0,plants,TRUE,1,610,negative,nothing
2803,c178,F,35,english,19,1,donuts,FALSE,1,1287,negative,item
2804,c178,F,35,english,20,2,dogs,TRUE,1,657,positive,item
2805,c178,F,35,english,21,3,buckets,FALSE,1,1034,positive,nothing
2806,c178,F,35,english,22,2,phones,TRUE,1,601,positive,item
2807,c178,F,35,english,23,0,cats,FALSE,1,795,positive,nothing
2808,c178,F,35,english,24,1,scissors,TRUE,1,1035,positive,item
2809,c178,F,35,english,25,1,pencils,TRUE,1,951,negative,nothing
2810,c178,F,35,english,26,0,keys,FALSE,1,738,negative,item
2811,c178,F,35,english,27,3,rainboots,TRUE,1,704,positive,item
2812,c178,F,35,english,28,1,mittens,FALSE,1,624,negative,item
2813,c178,F,35,english,29,2,presents,FALSE,1,726,positive,nothing
2814,c178,F,35,english,30,1,guitars,TRUE,1,709,negative,nothing
2815,c178,F,35,english,31,2,flowers,FALSE,1,948,negative,item
2816,c178,F,35,english,32,3,ice cream cones,FALSE,1,694,negative,item
2817,c79,F,35,English,1,0,daisies,FALSE,1,1399,negative,item
2818,c79,F,35,English,2,2,mittens,FALSE,1,1036,positive,nothing
2819,c79,F,35,English,3,0,balloons,TRUE,1,974,positive,item
2820,c79,F,35,English,4,2,bananas,TRUE,1,984,positive,item
2821,c79,F,35,English,5,1,purses,FALSE,1,1100,positive,nothing
2822,c79,F,35,English,6,2,umbrellas,TRUE,1,1258,negative,nothing
2823,c79,F,35,English,7,3,cats,TRUE,1,1082,positive,item
2824,c79,F,35,English,8,2,carrots,TRUE,1,1304,positive,item
2825,c79,F,35,English,9,1,rainboots,TRUE,1,844,positive,item
2826,c79,F,35,English,10,2,plants,TRUE,1,929,negative,nothing
2827,c79,F,35,English,11,0,bows,FALSE,1,1608,positive,nothing
2828,c79,F,35,English,12,1,ice cream cones,TRUE,1,1044,positive,item
2829,c79,F,35,English,13,0,presents,TRUE,1,1581,negative,nothing
2830,c79,F,35,English,14,3,dogs,FALSE,1,721,positive,nothing
2831,c79,F,35,English,15,3,kites,FALSE,1,1203,positive,nothing
2832,c79,F,35,English,16,3,guitars,FALSE,1,765,negative,item
2833,c79,F,35,English,17,2,phones,FALSE,1,1079,negative,item
2834,c79,F,35,English,18,1,cars,FALSE,1,864,positive,nothing
2835,c79,F,35,English,19,3,shovels,TRUE,1,1126,negative,nothing
2836,c79,F,35,English,20,1,buckets,TRUE,1,1220,negative,nothing
2837,c79,F,35,English,21,2,apples,TRUE,0,679,negative,item
2838,c79,F,35,English,22,3,forks,FALSE,1,1016,negative,item
2839,c79,F,35,English,23,1,flowers,FALSE,1,809,negative,item
2840,c79,F,35,English,24,3,crayons,TRUE,1,1013,positive,item
2841,c79,F,35,English,25,0,keys,FALSE,1,774,positive,nothing
2842,c79,F,35,English,26,0,pencils,TRUE,1,813,positive,item
2843,c79,F,35,English,27,1,donuts,TRUE,1,993,negative,nothing
2844,c79,F,35,English,28,3,fish,TRUE,1,978,negative,nothing
2845,c79,F,35,English,29,1,cookies,FALSE,1,774,negative,item
2846,c79,F,35,English,30,0,scissors,FALSE,1,902,negative,item
2847,c79,F,35,English,31,0,cakes,TRUE,1,1060,negative,nothing
2848,c79,F,35,English,32,2,lollipops,FALSE,1,1034,positive,nothing
2849,c30,F,55,English,1,3,fish,FALSE,1,1531,positive,nothing
2850,c30,F,55,English,2,1,bananas,FALSE,1,1679,negative,item
2851,c30,F,55,English,3,0,umbrellas,TRUE,1,1236,positive,item
2852,c30,F,55,English,4,0,apples,FALSE,1,1182,positive,nothing
2853,c30,F,55,English,5,1,guitars,TRUE,1,1533,positive,item
2854,c30,F,55,English,6,2,phones,FALSE,1,965,negative,item
2855,c30,F,55,English,7,2,cookies,TRUE,1,1070,positive,item
2856,c30,F,55,English,8,1,plants,FALSE,1,1124,negative,item
2857,c30,F,55,English,9,2,cars,FALSE,1,785,positive,nothing
2858,c30,F,55,English,10,3,balloons,TRUE,1,989,negative,nothing
2859,c30,F,55,English,11,3,purses,TRUE,1,2542,positive,item
2860,c30,F,55,English,12,0,cats,TRUE,1,1098,negative,nothing
2861,c30,F,55,English,13,2,donuts,TRUE,1,1336,positive,item
2862,c30,F,55,English,14,2,bows,TRUE,1,1285,negative,nothing
2863,c30,F,55,English,15,2,pencils,TRUE,1,1188,negative,nothing
2864,c30,F,55,English,16,0,ice cream cones,FALSE,1,1512,positive,nothing
2865,c30,F,55,English,17,3,buckets,FALSE,1,1237,negative,item
2866,c30,F,55,English,18,3,shovels,FALSE,1,811,negative,item
2867,c30,F,55,English,19,2,carrots,FALSE,1,2128,positive,nothing
2868,c30,F,55,English,20,1,kites,FALSE,1,1401,positive,nothing
2869,c30,F,55,English,21,3,scissors,TRUE,1,939,negative,nothing
2870,c30,F,55,English,22,1,keys,TRUE,1,1416,negative,nothing
2871,c30,F,55,English,23,0,cakes,FALSE,1,997,negative,item
2872,c30,F,55,English,24,1,forks,TRUE,1,1099,negative,nothing
2873,c30,F,55,English,25,0,flowers,TRUE,1,1376,positive,item
2874,c30,F,55,English,26,1,crayons,TRUE,1,1575,positive,item
2875,c30,F,55,English,27,3,dogs,FALSE,1,1070,positive,nothing
2876,c30,F,55,English,28,2,presents,FALSE,1,1706,negative,item
2877,c30,F,55,English,29,3,rainboots,TRUE,1,1447,positive,item
2878,c30,F,55,English,30,0,mittens,FALSE,1,975,negative,item
2879,c30,F,55,English,31,0,lollipops,TRUE,1,1360,negative,nothing
2880,c30,F,55,English,32,1,daisies,FALSE,1,1371,positive,nothing
2881,c17,F,65,English,1,0,ice cream cones,FALSE,1,1437,negative,item
2882,c17,F,65,English,2,2,fish,FALSE,1,1335,positive,nothing
2883,c17,F,65,English,3,1,rainboots,FALSE,1,1409,negative,item
2884,c17,F,65,English,4,2,cats,FALSE,1,1473,positive,nothing
2885,c17,F,65,English,5,1,scissors,TRUE,1,1721,negative,nothing
2886,c17,F,65,English,6,3,mittens,FALSE,1,1904,positive,nothing
2887,c17,F,65,English,7,1,phones,TRUE,1,1448,negative,nothing
2888,c17,F,65,English,8,0,keys,TRUE,1,1105,positive,item
2889,c17,F,65,English,9,1,forks,FALSE,1,1424,positive,nothing
2890,c17,F,65,English,10,0,donuts,FALSE,1,1621,positive,nothing
2891,c17,F,65,English,11,1,crayons,TRUE,1,1128,positive,item
2892,c17,F,65,English,12,3,presents,TRUE,1,1400,negative,nothing
2893,c17,F,65,English,13,2,umbrellas,FALSE,1,809,negative,item
2894,c17,F,65,English,14,2,lollipops,TRUE,1,1201,negative,nothing
2895,c17,F,65,English,15,3,carrots,FALSE,1,2241,negative,item
2896,c17,F,65,English,16,1,cars,FALSE,1,1825,positive,nothing
2897,c17,F,65,English,17,2,daisies,FALSE,0,1641,negative,nothing
2898,c17,F,65,English,18,3,cakes,TRUE,1,1728,positive,item
2899,c17,F,65,English,19,0,buckets,FALSE,1,1801,positive,nothing
2900,c17,F,65,English,20,1,guitars,TRUE,1,1681,positive,item
2901,c17,F,65,English,21,3,pencils,FALSE,1,1049,negative,item
2902,c17,F,65,English,22,0,balloons,TRUE,1,1761,negative,nothing
2903,c17,F,65,English,23,2,flowers,TRUE,1,1281,positive,item
2904,c17,F,65,English,24,0,purses,TRUE,1,1249,positive,item
2905,c17,F,65,English,25,3,dogs,TRUE,1,995,positive,item
2906,c17,F,65,English,26,0,cookies,TRUE,1,1744,negative,nothing
2907,c17,F,65,English,27,0,bows,FALSE,1,1945,negative,item
2908,c17,F,65,English,28,2,kites,FALSE,1,1278,negative,item
2909,c17,F,65,English,29,3,apples,FALSE,1,1736,positive,nothing
2910,c17,F,65,English,30,1,shovels,FALSE,1,1664,negative,item
2911,c17,F,65,English,31,2,bananas,TRUE,1,1663,positive,item
2912,c17,F,65,English,32,3,plants,TRUE,1,1201,negative,nothing
2913,c18,F,35,english,1,2,scissors,TRUE,1,1746,positive,item
2914,c18,F,35,english,2,2,balloons,FALSE,1,1621,positive,nothing
2915,c18,F,35,english,3,2,dogs,FALSE,1,1549,negative,item
2916,c18,F,35,english,4,2,kites,FALSE,1,1461,positive,nothing
2917,c18,F,35,english,5,1,bows,TRUE,1,1408,negative,nothing
2918,c18,F,35,english,6,2,rainboots,TRUE,1,1388,positive,item
2919,c18,F,35,english,7,0,buckets,TRUE,1,4454,negative,nothing
2920,c18,F,35,english,8,0,flowers,FALSE,1,1194,negative,item
2921,c18,F,35,english,9,2,crayons,FALSE,1,1050,negative,item
2922,c18,F,35,english,10,3,guitars,TRUE,1,1435,positive,item
2923,c18,F,35,english,11,0,ice cream cones,FALSE,1,1704,positive,nothing
2924,c18,F,35,english,12,0,apples,TRUE,1,2459,positive,item
2925,c18,F,35,english,13,3,lollipops,FALSE,1,1378,positive,nothing
2926,c18,F,35,english,14,3,umbrellas,TRUE,1,1032,positive,item
2927,c18,F,35,english,15,0,shovels,FALSE,1,1755,negative,item
2928,c18,F,35,english,16,1,carrots,FALSE,1,1021,positive,nothing
2929,c18,F,35,english,17,0,forks,TRUE,1,1218,negative,nothing
2930,c18,F,35,english,18,3,fish,FALSE,1,1387,positive,nothing
2931,c18,F,35,english,19,3,donuts,TRUE,1,748,negative,nothing
2932,c18,F,35,english,20,1,phones,TRUE,1,906,positive,item
2933,c18,F,35,english,21,0,pencils,FALSE,1,1113,positive,nothing
2934,c18,F,35,english,22,3,keys,TRUE,1,1557,negative,nothing
2935,c18,F,35,english,23,2,cookies,TRUE,1,1198,negative,nothing
2936,c18,F,35,english,24,3,presents,FALSE,1,766,negative,item
2937,c18,F,35,english,25,1,plants,FALSE,1,1136,positive,nothing
2938,c18,F,35,english,26,1,cakes,TRUE,1,1343,positive,item
2939,c18,F,35,english,27,1,mittens,TRUE,1,902,negative,nothing
2940,c18,F,35,english,28,2,cars,TRUE,1,1261,negative,nothing
2941,c18,F,35,english,29,1,purses,FALSE,1,802,negative,item
2942,c18,F,35,english,30,3,bananas,FALSE,1,702,negative,item
2943,c18,F,35,english,31,1,cats,FALSE,1,964,negative,item
2944,c18,F,35,english,32,0,daisies,TRUE,1,785,positive,item
2945,c179,F,65,English,1,3,cakes,TRUE,1,2122,negative,nothing
2946,c179,F,65,English,2,0,pencils,FALSE,1,1607,positive,nothing
2947,c179,F,65,English,3,1,scissors,TRUE,1,1395,positive,item
2948,c179,F,65,English,4,0,phones,TRUE,1,1825,negative,nothing
2949,c179,F,65,English,5,1,presents,TRUE,1,2079,negative,nothing
2950,c179,F,65,English,6,0,bananas,FALSE,1,1569,negative,item
2951,c179,F,65,English,7,1,lollipops,TRUE,1,1914,negative,nothing
