"","X","subid","gender","age","language","trial.num","context.condition","item","response","correct","rt","text.condition","image.condition"
"1",1,279,"M",35,"English",1,0,"kites",TRUE,1,765,"positive","item"
"2",10,279,"M",35,"English",10,1,"cars",FALSE,1,541,"negative","item"
"3",100,117,"M",25,"English",4,0,"umbrellas",FALSE,1,829,"positive","nothing"
"4",1000,190,"F",55,"English",8,3,"phones",TRUE,1,803,"positive","item"
"5",1001,190,"F",55,"English",9,3,"scissors",TRUE,1,973,"negative","nothing"
"6",1002,190,"F",55,"English",10,0,"keys",TRUE,1,854,"positive","item"
"7",1003,190,"F",55,"English",11,3,"daisies",FALSE,1,1444,"positive","nothing"
"8",1004,190,"F",55,"English",12,0,"fish",TRUE,1,869,"positive","item"
"9",1005,190,"F",55,"English",13,0,"carrots",FALSE,1,1501,"negative","item"
"10",1006,190,"F",55,"English",14,1,"rainboots",FALSE,1,972,"positive","nothing"
"11",1007,190,"F",55,"English",15,1,"bows",FALSE,1,924,"negative","item"
"12",1008,190,"F",55,"English",16,2,"cakes",TRUE,1,1085,"negative","nothing"
"13",1009,190,"F",55,"English",17,1,"buckets",TRUE,1,1165,"negative","nothing"
"14",101,117,"M",25,"English",5,3,"lollipops",FALSE,1,617,"negative","item"
"15",1010,190,"F",55,"English",18,2,"ice cream cones",FALSE,1,1612,"positive","nothing"
"16",1011,190,"F",55,"English",19,1,"guitars",TRUE,1,630,"positive","item"
"17",1012,190,"F",55,"English",20,2,"crayons",TRUE,1,1293,"negative","nothing"
"18",1013,190,"F",55,"English",21,1,"plants",FALSE,1,1077,"positive","nothing"
"19",1014,190,"F",55,"English",22,2,"apples",TRUE,1,1611,"positive","item"
"20",1015,190,"F",55,"English",23,1,"flowers",TRUE,1,1570,"positive","item"
"21",1016,190,"F",55,"English",24,3,"balloons",FALSE,1,1037,"positive","nothing"
"22",1017,190,"F",55,"English",25,3,"dogs",FALSE,1,772,"negative","item"
"23",1018,190,"F",55,"English",26,0,"forks",TRUE,1,1087,"negative","nothing"
"24",1019,190,"F",55,"English",27,3,"cookies",TRUE,1,723,"positive","item"
"25",102,117,"M",25,"English",6,1,"keys",FALSE,1,609,"positive","nothing"
"26",1020,190,"F",55,"English",28,3,"kites",FALSE,1,1403,"negative","item"
"27",1021,190,"F",55,"English",29,1,"purses",TRUE,1,1062,"negative","nothing"
"28",1022,190,"F",55,"English",30,1,"shovels",FALSE,1,939,"negative","item"
"29",1023,190,"F",55,"English",31,2,"umbrellas",TRUE,1,1115,"positive","item"
"30",1024,190,"F",55,"English",32,2,"mittens",FALSE,1,958,"negative","item"
"31",1025,179,"F",55,"English",1,1,"dogs",TRUE,1,1281,"positive","item"
"32",1026,179,"F",55,"English",2,2,"cats",TRUE,1,952,"positive","item"
"33",1027,179,"F",55,"English",3,3,"umbrellas",FALSE,1,1896,"negative","item"
"34",1028,179,"F",55,"English",4,2,"daisies",FALSE,1,1186,"negative","item"
"35",1029,179,"F",55,"English",5,1,"balloons",TRUE,1,1293,"negative","nothing"
"36",103,117,"M",25,"English",7,2,"cookies",TRUE,1,565,"positive","item"
"37",1030,179,"F",55,"English",6,0,"presents",FALSE,1,1576,"positive","nothing"
"38",1031,179,"F",55,"English",7,2,"shovels",TRUE,1,934,"positive","item"
"39",1032,179,"F",55,"English",8,3,"keys",FALSE,1,935,"positive","nothing"
"40",1033,179,"F",55,"English",9,2,"buckets",FALSE,1,1348,"positive","nothing"
"41",1034,179,"F",55,"English",10,3,"mittens",TRUE,1,1123,"positive","item"
"42",1035,179,"F",55,"English",11,0,"apples",TRUE,1,690,"positive","item"
"43",1036,179,"F",55,"English",12,0,"bows",FALSE,1,1508,"positive","nothing"
"44",1037,179,"F",55,"English",13,3,"fish",FALSE,1,1663,"negative","item"
"45",1038,179,"F",55,"English",14,3,"pencils",TRUE,1,1802,"negative","nothing"
"46",1039,179,"F",55,"English",15,1,"ice cream cones",FALSE,1,1662,"positive","nothing"
"47",104,117,"M",25,"English",8,0,"donuts",TRUE,1,1029,"negative","nothing"
"48",1040,179,"F",55,"English",16,2,"cakes",FALSE,1,1486,"positive","nothing"
"49",1041,179,"F",55,"English",17,1,"lollipops",FALSE,1,1451,"negative","item"
"50",1042,179,"F",55,"English",18,2,"donuts",TRUE,1,2308,"negative","nothing"
"51",1043,179,"F",55,"English",19,1,"guitars",FALSE,1,1396,"negative","item"
"52",1044,179,"F",55,"English",20,3,"purses",TRUE,1,2169,"positive","item"
"53",1045,179,"F",55,"English",21,0,"flowers",FALSE,1,1092,"negative","item"
"54",1046,179,"F",55,"English",22,0,"kites",TRUE,1,1536,"negative","nothing"
"55",1047,179,"F",55,"English",23,0,"plants",FALSE,1,1094,"negative","item"
"56",1048,179,"F",55,"English",24,0,"cookies",TRUE,1,1210,"negative","nothing"
"57",1049,179,"F",55,"English",25,0,"bananas",TRUE,1,916,"positive","item"
"58",105,117,"M",25,"English",9,2,"carrots",TRUE,1,610,"positive","item"
"59",1050,179,"F",55,"English",26,3,"crayons",TRUE,1,1588,"negative","nothing"
"60",1051,179,"F",55,"English",27,2,"scissors",TRUE,1,1505,"negative","nothing"
"61",1052,179,"F",55,"English",28,3,"cars",FALSE,1,1448,"positive","nothing"
"62",1053,179,"F",55,"English",29,1,"carrots",TRUE,1,1081,"positive","item"
"63",1054,179,"F",55,"English",30,1,"rainboots",FALSE,1,1025,"positive","nothing"
"64",1055,179,"F",55,"English",31,2,"forks",FALSE,1,1266,"negative","item"
"65",1056,179,"F",55,"English",32,1,"phones",TRUE,1,1851,"negative","nothing"
"66",1057,119,"F",45,"english",1,0,"buckets",FALSE,1,1099,"negative","item"
"67",1058,119,"F",45,"english",2,2,"apples",TRUE,0,590,"positive","nothing"
"68",1059,119,"F",45,"english",3,3,"presents",TRUE,1,525,"positive","item"
"69",106,117,"M",25,"English",10,3,"purses",TRUE,1,568,"positive","item"
"70",1060,119,"F",45,"english",4,3,"bananas",FALSE,0,541,"negative","nothing"
"71",1061,119,"F",45,"english",5,3,"balloons",FALSE,1,1046,"positive","nothing"
"72",1062,119,"F",45,"english",6,0,"guitars",TRUE,0,2289,"positive","nothing"
"73",1063,119,"F",45,"english",7,2,"cats",TRUE,1,680,"positive","item"
"74",1064,119,"F",45,"english",8,3,"plants",TRUE,1,566,"positive","item"
"75",1065,119,"F",45,"english",9,0,"forks",FALSE,1,824,"negative","item"
"76",1066,119,"F",45,"english",10,1,"ice cream cones",FALSE,1,1179,"positive","nothing"
"77",1067,119,"F",45,"english",11,1,"mittens",FALSE,1,697,"positive","nothing"
"78",1068,119,"F",45,"english",12,1,"cookies",FALSE,1,1075,"negative","item"
"79",1069,119,"F",45,"english",13,2,"purses",FALSE,1,877,"negative","item"
"80",107,117,"M",25,"English",11,0,"kites",FALSE,1,539,"negative","item"
"81",1070,119,"F",45,"english",14,1,"umbrellas",FALSE,1,891,"negative","item"
"82",1071,119,"F",45,"english",15,0,"crayons",FALSE,1,894,"positive","nothing"
"83",1072,119,"F",45,"english",16,1,"shovels",TRUE,1,837,"positive","item"
"84",1073,119,"F",45,"english",17,2,"cars",FALSE,1,748,"negative","item"
"85",1074,119,"F",45,"english",18,0,"carrots",TRUE,1,660,"positive","item"
"86",1075,119,"F",45,"english",19,1,"lollipops",TRUE,1,566,"positive","item"
"87",1076,119,"F",45,"english",20,0,"kites",TRUE,1,1521,"negative","nothing"
"88",1077,119,"F",45,"english",21,2,"daisies",FALSE,1,611,"positive","nothing"
"89",1078,119,"F",45,"english",22,1,"rainboots",TRUE,1,999,"negative","nothing"
"90",1079,119,"F",45,"english",23,3,"cakes",FALSE,1,652,"positive","nothing"
"91",108,117,"M",25,"English",12,3,"dogs",FALSE,1,700,"positive","nothing"
"92",1080,119,"F",45,"english",24,2,"scissors",TRUE,1,848,"negative","nothing"
"93",1081,119,"F",45,"english",25,2,"keys",TRUE,1,767,"negative","nothing"
"94",1082,119,"F",45,"english",26,0,"bows",TRUE,1,1420,"positive","item"
"95",1083,119,"F",45,"english",27,2,"donuts",TRUE,1,633,"positive","item"
"96",1084,119,"F",45,"english",28,3,"fish",FALSE,1,725,"negative","item"
"97",1085,119,"F",45,"english",29,1,"flowers",TRUE,1,604,"negative","nothing"
"98",1086,119,"F",45,"english",30,3,"phones",TRUE,1,716,"negative","nothing"
"99",1087,119,"F",45,"english",31,3,"pencils",FALSE,1,569,"negative","item"
"100",1088,119,"F",45,"english",32,0,"dogs",FALSE,0,1055,"negative","nothing"
"101",1089,419,"M",45,"english",1,1,"flowers",TRUE,0,1032,"positive","nothing"
"102",109,117,"M",25,"English",13,2,"scissors",FALSE,1,1211,"positive","nothing"
"103",1090,419,"M",45,"english",2,0,"apples",FALSE,1,1156,"negative","item"
"104",1091,419,"M",45,"english",3,2,"balloons",TRUE,1,1111,"positive","item"
"105",1092,419,"M",45,"english",4,0,"umbrellas",TRUE,1,1673,"negative","nothing"
"106",1093,419,"M",45,"english",5,1,"lollipops",TRUE,1,1407,"negative","nothing"
"107",1094,419,"M",45,"english",6,2,"shovels",TRUE,1,1391,"negative","nothing"
"108",1095,419,"M",45,"english",7,3,"rainboots",FALSE,0,1657,"positive","item"
"109",1096,419,"M",45,"english",8,0,"plants",FALSE,1,1438,"positive","nothing"
"110",1097,419,"M",45,"english",9,3,"daisies",TRUE,1,1110,"positive","item"
"111",1098,419,"M",45,"english",10,2,"phones",FALSE,1,1358,"positive","nothing"
"112",1099,419,"M",45,"english",11,1,"dogs",FALSE,1,1000,"negative","item"
"113",11,279,"M",35,"English",11,3,"presents",FALSE,1,721,"positive","nothing"
"114",110,117,"M",25,"English",14,2,"cars",FALSE,1,442,"positive","nothing"
"115",1100,419,"M",45,"english",12,1,"scissors",TRUE,1,1532,"negative","nothing"
"116",1101,419,"M",45,"english",13,0,"bananas",TRUE,1,1078,"positive","item"
"117",1102,419,"M",45,"english",14,1,"keys",FALSE,1,953,"negative","item"
"118",1103,419,"M",45,"english",15,0,"cookies",TRUE,1,1452,"negative","nothing"
"119",1104,419,"M",45,"english",16,3,"bows",FALSE,1,830,"negative","item"
"120",1105,419,"M",45,"english",17,2,"kites",FALSE,1,954,"negative","item"
"121",1106,419,"M",45,"english",18,1,"cars",TRUE,1,954,"positive","item"
"122",1107,419,"M",45,"english",19,2,"donuts",FALSE,1,1157,"positive","nothing"
"123",1108,419,"M",45,"english",20,3,"pencils",FALSE,1,1001,"positive","nothing"
"124",1109,419,"M",45,"english",21,3,"carrots",TRUE,1,625,"negative","nothing"
"125",111,117,"M",25,"English",15,3,"plants",TRUE,1,683,"negative","nothing"
"126",1110,419,"M",45,"english",22,0,"purses",FALSE,1,703,"negative","item"
"127",1111,419,"M",45,"english",23,3,"fish",FALSE,1,596,"negative","item"
"128",1112,419,"M",45,"english",24,3,"cats",FALSE,0,768,"negative","nothing"
"129",1113,419,"M",45,"english",25,3,"buckets",FALSE,1,1093,"positive","nothing"
"130",1114,419,"M",45,"english",26,2,"mittens",TRUE,1,970,"positive","item"
"131",1115,419,"M",45,"english",27,2,"forks",TRUE,1,1250,"negative","nothing"
"132",1116,419,"M",45,"english",28,2,"crayons",FALSE,1,922,"negative","item"
"133",1117,419,"M",45,"english",29,0,"ice cream cones",TRUE,1,876,"positive","item"
"134",1118,419,"M",45,"english",30,1,"cakes",FALSE,1,769,"positive","nothing"
"135",1119,419,"M",45,"english",31,0,"presents",FALSE,1,1080,"positive","nothing"
"136",112,117,"M",25,"English",16,2,"forks",FALSE,1,1235,"negative","item"
"137",1120,419,"M",45,"english",32,1,"guitars",TRUE,1,783,"positive","item"
"138",113,117,"M",25,"English",17,2,"apples",FALSE,1,557,"negative","item"
"139",114,117,"M",25,"English",18,0,"flowers",TRUE,1,1593,"negative","nothing"
"140",115,117,"M",25,"English",19,3,"balloons",FALSE,1,1555,"negative","item"
"141",1153,360,"M",45,"english",1,1,"buckets",FALSE,1,967,"positive","nothing"
"142",1154,360,"M",45,"english",2,0,"mittens",FALSE,1,1165,"negative","item"
"143",1155,360,"M",45,"english",3,3,"guitars",FALSE,1,925,"positive","nothing"
"144",1156,360,"M",45,"english",4,3,"bananas",FALSE,1,818,"positive","nothing"
"145",1157,360,"M",45,"english",5,2,"donuts",TRUE,1,1039,"positive","item"
"146",1158,360,"M",45,"english",6,2,"umbrellas",TRUE,1,2394,"negative","nothing"
"147",1159,360,"M",45,"english",7,3,"kites",TRUE,1,502,"positive","item"
"148",116,117,"M",25,"English",20,2,"pencils",TRUE,1,614,"negative","nothing"
"149",1160,360,"M",45,"english",8,2,"purses",FALSE,1,795,"negative","item"
"150",1161,360,"M",45,"english",9,1,"lollipops",FALSE,1,1239,"negative","item"
"151",1162,360,"M",45,"english",10,1,"cats",TRUE,0,833,"positive","nothing"
"152",1163,360,"M",45,"english",11,1,"ice cream cones",TRUE,1,874,"positive","item"
"153",1164,360,"M",45,"english",12,0,"forks",TRUE,1,1109,"negative","nothing"
"154",1165,360,"M",45,"english",13,2,"daisies",FALSE,1,1087,"negative","item"
"155",1166,360,"M",45,"english",14,2,"plants",TRUE,1,1642,"negative","nothing"
"156",1167,360,"M",45,"english",15,0,"pencils",FALSE,1,1201,"positive","nothing"
"157",1168,360,"M",45,"english",16,1,"bows",FALSE,1,1536,"negative","item"
"158",1169,360,"M",45,"english",17,0,"shovels",FALSE,1,1227,"positive","nothing"
"159",117,117,"M",25,"English",21,3,"rainboots",FALSE,1,537,"positive","nothing"
"160",1170,360,"M",45,"english",18,3,"crayons",TRUE,1,1541,"negative","nothing"
"161",1171,360,"M",45,"english",19,1,"fish",TRUE,1,908,"negative","nothing"
"162",1172,360,"M",45,"english",20,2,"cakes",TRUE,1,809,"positive","item"
"163",1173,360,"M",45,"english",21,1,"flowers",TRUE,1,761,"positive","item"
"164",1174,360,"M",45,"english",22,0,"keys",TRUE,1,1011,"negative","nothing"
"165",1175,360,"M",45,"english",23,3,"apples",FALSE,1,1157,"negative","item"
"166",1176,360,"M",45,"english",24,3,"cars",FALSE,1,962,"negative","item"
"167",1177,360,"M",45,"english",25,2,"presents",FALSE,1,1374,"positive","nothing"
"168",1178,360,"M",45,"english",26,1,"scissors",TRUE,1,1074,"negative","nothing"
"169",1179,360,"M",45,"english",27,0,"cookies",TRUE,1,1124,"positive","item"
"170",118,117,"M",25,"English",22,1,"presents",TRUE,1,486,"positive","item"
"171",1180,360,"M",45,"english",28,2,"dogs",FALSE,1,1235,"positive","nothing"
"172",1181,360,"M",45,"english",29,3,"phones",TRUE,1,1208,"negative","nothing"
"173",1182,360,"M",45,"english",30,3,"balloons",TRUE,1,1039,"positive","item"
"174",1183,360,"M",45,"english",31,0,"rainboots",FALSE,1,1207,"negative","item"
"175",1184,360,"M",45,"english",32,0,"carrots",TRUE,1,1031,"positive","item"
"176",1185,132,"M",35,"english",1,1,"carrots",FALSE,1,1838,"positive","nothing"
"177",1186,132,"M",35,"english",2,0,"cakes",FALSE,1,1580,"positive","nothing"
"178",1187,132,"M",35,"english",3,0,"purses",TRUE,1,1039,"negative","nothing"
"179",1188,132,"M",35,"english",4,2,"cookies",TRUE,1,1047,"negative","nothing"
"180",1189,132,"M",35,"english",5,3,"crayons",TRUE,1,1111,"negative","nothing"
"181",119,117,"M",25,"English",23,3,"fish",TRUE,1,562,"positive","item"
"182",1190,132,"M",35,"english",6,3,"ice cream cones",TRUE,1,1294,"positive","item"
"183",1191,132,"M",35,"english",7,2,"plants",TRUE,1,943,"positive","item"
"184",1192,132,"M",35,"english",8,1,"phones",TRUE,1,1678,"negative","nothing"
"185",1193,132,"M",35,"english",9,2,"daisies",FALSE,1,1157,"negative","item"
"186",1194,132,"M",35,"english",10,2,"guitars",FALSE,1,726,"negative","item"
"187",1195,132,"M",35,"english",11,3,"bows",FALSE,0,1199,"positive","item"
"188",1196,132,"M",35,"english",12,3,"apples",FALSE,1,1111,"positive","nothing"
"189",1197,132,"M",35,"english",13,1,"cars",TRUE,1,863,"positive","item"
"190",1198,132,"M",35,"english",14,2,"balloons",TRUE,1,615,"positive","item"
"191",1199,132,"M",35,"english",15,3,"lollipops",FALSE,1,710,"positive","nothing"
"192",12,279,"M",35,"English",12,3,"guitars",FALSE,0,559,"negative","nothing"
"193",120,117,"M",25,"English",24,1,"cats",TRUE,1,460,"negative","nothing"
"194",1200,132,"M",35,"english",16,3,"scissors",FALSE,1,960,"negative","item"
"195",1201,132,"M",35,"english",17,1,"shovels",FALSE,1,893,"positive","nothing"
"196",1202,132,"M",35,"english",18,3,"dogs",FALSE,1,750,"negative","item"
"197",1203,132,"M",35,"english",19,0,"donuts",FALSE,1,695,"negative","item"
"198",1204,132,"M",35,"english",20,1,"pencils",TRUE,1,1279,"negative","nothing"
"199",1205,132,"M",35,"english",21,1,"bananas",TRUE,1,2007,"positive","item"
"200",1206,132,"M",35,"english",22,0,"forks",FALSE,1,623,"negative","item"
"201",1207,132,"M",35,"english",23,1,"umbrellas",FALSE,1,822,"negative","item"
"202",1208,132,"M",35,"english",24,1,"presents",FALSE,1,654,"negative","item"
"203",1209,132,"M",35,"english",25,0,"cats",TRUE,1,1295,"negative","nothing"
"204",121,117,"M",25,"English",25,1,"bows",TRUE,0,694,"negative","item"
"205",1210,132,"M",35,"english",26,2,"flowers",FALSE,1,1038,"positive","nothing"
"206",1211,132,"M",35,"english",27,0,"rainboots",FALSE,1,1383,"positive","nothing"
"207",1212,132,"M",35,"english",28,2,"mittens",TRUE,1,1023,"negative","nothing"
"208",1213,132,"M",35,"english",29,0,"buckets",TRUE,1,863,"positive","item"
"209",1214,132,"M",35,"english",30,0,"keys",TRUE,1,911,"positive","item"
"210",1215,132,"M",35,"english",31,2,"kites",FALSE,1,1175,"positive","nothing"
"211",1216,132,"M",35,"english",32,3,"fish",TRUE,1,1159,"negative","nothing"
"212",1217,191,"F",25,"English",1,2,"presents",TRUE,1,932,"negative","nothing"
"213",1218,191,"F",25,"English",2,2,"forks",TRUE,1,1118,"negative","nothing"
"214",1219,191,"F",25,"English",3,2,"cars",FALSE,1,944,"positive","nothing"
"215",122,117,"M",25,"English",26,0,"phones",TRUE,1,1297,"positive","item"
"216",1220,191,"F",25,"English",4,3,"kites",FALSE,1,929,"negative","item"
"217",1221,191,"F",25,"English",5,3,"fish",TRUE,1,717,"positive","item"
"218",1222,191,"F",25,"English",6,3,"donuts",TRUE,1,718,"positive","item"
"219",1223,191,"F",25,"English",7,0,"mittens",FALSE,1,1112,"positive","nothing"
"220",1224,191,"F",25,"English",8,3,"cookies",FALSE,1,865,"positive","nothing"
"221",1225,191,"F",25,"English",9,0,"keys",FALSE,1,973,"positive","nothing"
"222",1226,191,"F",25,"English",10,2,"balloons",TRUE,1,759,"positive","item"
"223",1227,191,"F",25,"English",11,1,"umbrellas",FALSE,1,829,"negative","item"
"224",1228,191,"F",25,"English",12,1,"shovels",TRUE,1,718,"positive","item"
"225",1229,191,"F",25,"English",13,0,"daisies",FALSE,1,629,"negative","item"
"226",123,117,"M",25,"English",27,0,"guitars",FALSE,1,855,"negative","item"
"227",1230,191,"F",25,"English",14,0,"crayons",TRUE,1,1157,"negative","nothing"
"228",1231,191,"F",25,"English",15,2,"rainboots",FALSE,1,1080,"negative","item"
"229",1232,191,"F",25,"English",16,1,"cakes",FALSE,1,944,"positive","nothing"
"230",1233,191,"F",25,"English",17,0,"ice cream cones",TRUE,1,1157,"negative","nothing"
"231",1234,191,"F",25,"English",18,1,"carrots",TRUE,1,1051,"negative","nothing"
"232",1235,191,"F",25,"English",19,3,"phones",TRUE,1,1081,"negative","nothing"
"233",1236,191,"F",25,"English",20,0,"guitars",TRUE,1,585,"positive","item"
"234",1237,191,"F",25,"English",21,2,"bananas",TRUE,1,737,"positive","item"
"235",1238,191,"F",25,"English",22,1,"apples",FALSE,1,687,"negative","item"
"236",1239,191,"F",25,"English",23,2,"cats",FALSE,1,1193,"negative","item"
"237",124,117,"M",25,"English",28,0,"cakes",FALSE,1,1124,"positive","nothing"
"238",1240,191,"F",25,"English",24,1,"dogs",FALSE,1,696,"positive","nothing"
"239",1241,191,"F",25,"English",25,0,"lollipops",FALSE,1,1712,"negative","item"
"240",1242,191,"F",25,"English",26,3,"scissors",FALSE,1,767,"positive","nothing"
"241",1243,191,"F",25,"English",27,2,"flowers",FALSE,1,848,"positive","nothing"
"242",1244,191,"F",25,"English",28,3,"pencils",TRUE,1,730,"negative","nothing"
"243",1245,191,"F",25,"English",29,1,"buckets",TRUE,1,638,"negative","nothing"
"244",1246,191,"F",25,"English",30,1,"bows",TRUE,1,1034,"positive","item"
"245",1247,191,"F",25,"English",31,3,"purses",FALSE,1,1135,"negative","item"
"246",1248,191,"F",25,"English",32,0,"plants",TRUE,1,1432,"positive","item"
"247",1249,294,"F",35,"English",1,0,"carrots",FALSE,1,3537,"positive","nothing"
"248",125,117,"M",25,"English",29,1,"mittens",TRUE,1,812,"positive","item"
"249",1250,294,"F",35,"English",2,1,"scissors",FALSE,1,7330,"positive","nothing"
"250",1251,294,"F",35,"English",3,3,"rainboots",TRUE,1,2688,"negative","nothing"
"251",1252,294,"F",35,"English",4,1,"guitars",TRUE,1,9370,"positive","item"
"252",1253,294,"F",35,"English",5,2,"mittens",FALSE,1,5960,"positive","nothing"
"253",1254,294,"F",35,"English",6,1,"daisies",TRUE,1,5513,"positive","item"
"254",1255,294,"F",35,"English",7,0,"ice cream cones",TRUE,1,4659,"positive","item"
"255",1256,294,"F",35,"English",8,3,"bows",TRUE,0,2953,"negative","item"
"256",1257,294,"F",35,"English",9,2,"purses",FALSE,1,13842,"positive","nothing"
"257",1258,294,"F",35,"English",10,2,"bananas",FALSE,1,1538,"negative","item"
"258",1259,294,"F",35,"English",11,3,"lollipops",FALSE,1,8107,"positive","nothing"
"259",126,117,"M",25,"English",30,1,"bananas",TRUE,1,609,"negative","nothing"
"260",1260,294,"F",35,"English",12,3,"buckets",TRUE,1,2224,"positive","item"
"261",1261,294,"F",35,"English",13,3,"cookies",TRUE,1,2748,"positive","item"
"262",1262,294,"F",35,"English",14,1,"dogs",TRUE,1,16084,"negative","nothing"
"263",1263,294,"F",35,"English",15,3,"apples",TRUE,1,4650,"negative","nothing"
"264",1264,294,"F",35,"English",16,0,"balloons",TRUE,1,3127,"negative","nothing"
"265",1265,294,"F",35,"English",17,0,"kites",TRUE,1,1554,"negative","nothing"
"266",1266,294,"F",35,"English",18,2,"pencils",TRUE,1,2338,"negative","nothing"
"267",1267,294,"F",35,"English",19,0,"keys",TRUE,1,1777,"positive","item"
"268",1268,294,"F",35,"English",20,1,"shovels",FALSE,1,2737,"positive","nothing"
"269",1269,294,"F",35,"English",21,3,"donuts",FALSE,1,2523,"negative","item"
"270",127,117,"M",25,"English",31,1,"ice cream cones",FALSE,1,696,"negative","item"
"271",1270,294,"F",35,"English",22,3,"presents",FALSE,1,4296,"positive","nothing"
"272",1271,294,"F",35,"English",23,0,"cars",FALSE,1,1792,"negative","item"
"273",1272,294,"F",35,"English",24,0,"plants",FALSE,1,2306,"negative","item"
"274",1273,294,"F",35,"English",25,2,"fish",TRUE,1,2434,"positive","item"
"275",1274,294,"F",35,"English",26,0,"cats",FALSE,1,3922,"positive","nothing"
"276",1275,294,"F",35,"English",27,2,"cakes",TRUE,1,1667,"positive","item"
"277",1276,294,"F",35,"English",28,1,"forks",FALSE,1,7219,"negative","item"
"278",1277,294,"F",35,"English",29,2,"umbrellas",TRUE,1,2392,"negative","nothing"
"279",1278,294,"F",35,"English",30,2,"phones",FALSE,1,2818,"negative","item"
"280",1279,294,"F",35,"English",31,1,"crayons",FALSE,1,1393,"negative","item"
"281",128,117,"M",25,"English",32,3,"daisies",TRUE,1,1250,"negative","nothing"
"282",1280,294,"F",35,"English",32,1,"flowers",TRUE,1,3009,"negative","nothing"
"283",1281,376,"F",25,"english",1,1,"kites",TRUE,1,1309,"positive","item"
"284",1282,376,"F",25,"english",2,2,"balloons",TRUE,1,1174,"negative","nothing"
"285",1283,376,"F",25,"english",3,3,"cars",FALSE,1,873,"positive","nothing"
"286",1284,376,"F",25,"english",4,0,"umbrellas",TRUE,1,718,"positive","item"
"287",1285,376,"F",25,"english",5,0,"bananas",TRUE,1,1218,"negative","nothing"
"288",1286,376,"F",25,"english",6,3,"crayons",TRUE,1,1015,"negative","nothing"
"289",1287,376,"F",25,"english",7,1,"donuts",TRUE,1,1241,"negative","nothing"
"290",1288,376,"F",25,"english",8,3,"phones",TRUE,0,1269,"negative","item"
"291",1289,376,"F",25,"english",9,0,"cakes",FALSE,1,1037,"negative","item"
"292",129,372,"M",35,"English",1,2,"buckets",FALSE,1,834,"negative","item"
"293",1290,376,"F",25,"english",10,2,"forks",FALSE,1,927,"negative","item"
"294",1291,376,"F",25,"english",11,1,"scissors",FALSE,1,1335,"positive","nothing"
"295",1292,376,"F",25,"english",12,2,"cookies",FALSE,1,1383,"negative","item"
"296",1293,376,"F",25,"english",13,2,"purses",FALSE,1,1734,"positive","nothing"
"297",1294,376,"F",25,"english",14,0,"lollipops",FALSE,1,1053,"positive","nothing"
"298",1295,376,"F",25,"english",15,0,"flowers",TRUE,1,1278,"positive","item"
"299",1296,376,"F",25,"english",16,0,"ice cream cones",FALSE,1,1111,"negative","item"
"300",1297,376,"F",25,"english",17,1,"buckets",FALSE,1,1148,"negative","item"
"301",1298,376,"F",25,"english",18,2,"daisies",TRUE,1,1478,"negative","nothing"
"302",1299,376,"F",25,"english",19,2,"fish",TRUE,1,1088,"positive","item"
"303",13,279,"M",35,"English",13,2,"scissors",FALSE,0,767,"negative","nothing"
"304",130,372,"M",35,"English",2,0,"fish",FALSE,1,968,"positive","nothing"
"305",1300,376,"F",25,"english",20,1,"rainboots",FALSE,1,1379,"positive","nothing"
"306",1301,376,"F",25,"english",21,3,"shovels",FALSE,1,745,"negative","item"
"307",1302,376,"F",25,"english",22,3,"bows",TRUE,1,1363,"positive","item"
"308",1303,376,"F",25,"english",23,3,"carrots",TRUE,1,1030,"negative","nothing"
"309",1304,376,"F",25,"english",24,2,"guitars",TRUE,1,1140,"positive","item"
"310",1305,376,"F",25,"english",25,1,"dogs",TRUE,1,1216,"negative","nothing"
"311",1306,376,"F",25,"english",26,1,"pencils",FALSE,1,1366,"negative","item"
"312",1307,376,"F",25,"english",27,3,"plants",FALSE,1,1434,"positive","nothing"
"313",1308,376,"F",25,"english",28,3,"presents",TRUE,1,1122,"positive","item"
"314",1309,376,"F",25,"english",29,2,"keys",FALSE,1,1112,"positive","nothing"
"315",131,372,"M",35,"English",3,2,"keys",FALSE,1,767,"positive","nothing"
"316",1310,376,"F",25,"english",30,1,"apples",TRUE,1,1042,"positive","item"
"317",1311,376,"F",25,"english",31,0,"cats",FALSE,1,974,"positive","nothing"
"318",1312,376,"F",25,"english",32,0,"mittens",TRUE,1,1865,"negative","nothing"
"319",1313,29,"F",25,"English",1,1,"flowers",FALSE,1,1012,"positive","nothing"
"320",1314,29,"F",25,"English",2,3,"fish",FALSE,1,637,"positive","nothing"
"321",1315,29,"F",25,"English",3,2,"carrots",FALSE,1,1121,"negative","item"
"322",1316,29,"F",25,"English",4,1,"balloons",FALSE,1,537,"positive","nothing"
"323",1317,29,"F",25,"English",5,0,"plants",TRUE,1,983,"negative","nothing"
"324",1318,29,"F",25,"English",6,0,"cakes",TRUE,1,964,"positive","item"
"325",1319,29,"F",25,"English",7,3,"lollipops",FALSE,1,481,"positive","nothing"
"326",132,372,"M",35,"English",4,0,"donuts",FALSE,0,2251,"negative","nothing"
"327",1320,29,"F",25,"English",8,2,"purses",TRUE,1,598,"positive","item"
"328",1321,29,"F",25,"English",9,0,"pencils",TRUE,1,1006,"negative","nothing"
"329",1322,29,"F",25,"English",10,2,"keys",TRUE,1,791,"negative","nothing"
"330",1323,29,"F",25,"English",11,3,"donuts",TRUE,1,833,"negative","nothing"
"331",1324,29,"F",25,"English",12,1,"guitars",TRUE,1,802,"positive","item"
"332",1325,29,"F",25,"English",13,3,"presents",TRUE,1,744,"negative","nothing"
"333",1326,29,"F",25,"English",14,1,"dogs",TRUE,1,622,"positive","item"
"334",1327,29,"F",25,"English",15,1,"phones",FALSE,1,579,"negative","item"
"335",1328,29,"F",25,"English",16,3,"scissors",TRUE,1,536,"positive","item"
"336",1329,29,"F",25,"English",17,2,"shovels",FALSE,1,608,"negative","item"
"337",133,372,"M",35,"English",5,2,"mittens",TRUE,1,1251,"positive","item"
"338",1330,29,"F",25,"English",18,3,"buckets",FALSE,1,665,"negative","item"
"339",1331,29,"F",25,"English",19,1,"mittens",TRUE,1,778,"negative","nothing"
"340",1332,29,"F",25,"English",20,0,"bows",TRUE,1,655,"positive","item"
"341",1333,29,"F",25,"English",21,2,"cookies",TRUE,1,519,"positive","item"
"342",1334,29,"F",25,"English",22,3,"crayons",FALSE,1,765,"negative","item"
"343",1335,29,"F",25,"English",23,2,"umbrellas",FALSE,1,1034,"positive","nothing"
"344",1336,29,"F",25,"English",24,3,"ice cream cones",TRUE,1,783,"positive","item"
"345",1337,29,"F",25,"English",25,0,"cars",FALSE,1,1023,"positive","nothing"
"346",1338,29,"F",25,"English",26,2,"bananas",TRUE,1,830,"negative","nothing"
"347",1339,29,"F",25,"English",27,1,"rainboots",FALSE,1,948,"negative","item"
"348",134,372,"M",35,"English",6,2,"rainboots",TRUE,1,1095,"negative","nothing"
"349",1340,29,"F",25,"English",28,0,"forks",FALSE,1,793,"positive","nothing"
"350",1341,29,"F",25,"English",29,0,"apples",FALSE,1,964,"negative","item"
"351",1342,29,"F",25,"English",30,2,"daisies",FALSE,1,1028,"positive","nothing"
"352",1343,29,"F",25,"English",31,1,"kites",TRUE,1,777,"negative","nothing"
"353",1344,29,"F",25,"English",32,0,"cats",FALSE,1,591,"negative","item"
"354",1345,46,"M",25,"english",1,1,"plants",TRUE,1,1602,"positive","item"
"355",1346,46,"M",25,"english",2,0,"pencils",TRUE,1,770,"positive","item"
"356",1347,46,"M",25,"english",3,0,"dogs",TRUE,1,1323,"negative","nothing"
"357",1348,46,"M",25,"english",4,2,"bows",TRUE,1,1111,"positive","item"
"358",1349,46,"M",25,"english",5,0,"bananas",FALSE,1,981,"positive","nothing"
"359",135,372,"M",35,"English",7,2,"apples",TRUE,1,944,"negative","nothing"
"360",1350,46,"M",25,"english",6,1,"cars",FALSE,1,666,"positive","nothing"
"361",1351,46,"M",25,"english",7,1,"apples",TRUE,1,695,"positive","item"
"362",1352,46,"M",25,"english",8,3,"buckets",TRUE,1,1029,"negative","nothing"
"363",1353,46,"M",25,"english",9,3,"forks",FALSE,1,1685,"positive","nothing"
"364",1354,46,"M",25,"english",10,3,"balloons",FALSE,1,972,"negative","item"
"365",1355,46,"M",25,"english",11,1,"flowers",FALSE,1,1503,"negative","item"
"366",1356,46,"M",25,"english",12,0,"shovels",FALSE,1,654,"negative","item"
"367",1357,46,"M",25,"english",13,2,"mittens",TRUE,1,1029,"positive","item"
"368",1358,46,"M",25,"english",14,0,"rainboots",TRUE,1,2280,"negative","nothing"
"369",1359,46,"M",25,"english",15,2,"cookies",FALSE,1,934,"positive","nothing"
"370",136,372,"M",35,"English",8,2,"cakes",TRUE,1,689,"positive","item"
"371",1360,46,"M",25,"english",16,0,"crayons",FALSE,1,907,"negative","item"
"372",1361,46,"M",25,"english",17,3,"phones",FALSE,1,935,"negative","item"
"373",1362,46,"M",25,"english",18,1,"carrots",TRUE,1,1247,"negative","nothing"
"374",1363,46,"M",25,"english",19,1,"kites",FALSE,1,911,"positive","nothing"
"375",1364,46,"M",25,"english",20,3,"guitars",TRUE,1,726,"positive","item"
"376",1365,46,"M",25,"english",21,2,"presents",FALSE,1,949,"negative","item"
"377",1366,46,"M",25,"english",22,2,"cakes",TRUE,1,1631,"negative","nothing"
"378",1367,46,"M",25,"english",23,3,"fish",FALSE,1,876,"positive","nothing"
"379",1368,46,"M",25,"english",24,3,"ice cream cones",TRUE,1,1047,"negative","nothing"
"380",1369,46,"M",25,"english",25,0,"daisies",TRUE,1,709,"positive","item"
"381",137,372,"M",35,"English",9,1,"forks",TRUE,1,1173,"positive","item"
"382",1370,46,"M",25,"english",26,1,"purses",TRUE,1,1004,"negative","nothing"
"383",1371,46,"M",25,"english",27,2,"lollipops",FALSE,1,775,"positive","nothing"
"384",1372,46,"M",25,"english",28,0,"umbrellas",FALSE,1,958,"positive","nothing"
"385",1373,46,"M",25,"english",29,2,"keys",TRUE,1,1285,"negative","nothing"
"386",1374,46,"M",25,"english",30,3,"scissors",TRUE,1,622,"positive","item"
"387",1375,46,"M",25,"english",31,1,"donuts",FALSE,1,910,"negative","item"
"388",1376,46,"M",25,"english",32,2,"cats",FALSE,1,1615,"negative","item"
"389",1377,149,"F",35,"english",1,1,"cookies",FALSE,1,1777,"negative","item"
"390",1378,149,"F",35,"english",2,2,"kites",TRUE,1,1209,"negative","nothing"
"391",1379,149,"F",35,"english",3,0,"plants",TRUE,1,1280,"positive","item"
"392",138,372,"M",35,"English",10,1,"daisies",FALSE,1,820,"negative","item"
"393",1380,149,"F",35,"english",4,1,"umbrellas",TRUE,1,2306,"negative","nothing"
"394",1381,149,"F",35,"english",5,0,"keys",TRUE,1,4133,"negative","nothing"
"395",1382,149,"F",35,"english",6,0,"forks",FALSE,1,1050,"negative","item"
"396",1383,149,"F",35,"english",7,0,"flowers",TRUE,1,790,"positive","item"
"397",1384,149,"F",35,"english",8,2,"pencils",FALSE,1,1200,"negative","item"
"398",1385,149,"F",35,"english",9,2,"purses",TRUE,1,1437,"negative","nothing"
"399",1386,149,"F",35,"english",10,3,"dogs",FALSE,1,1069,"negative","item"
"400",1387,149,"F",35,"english",11,1,"cakes",TRUE,1,1753,"positive","item"
"401",1388,149,"F",35,"english",12,1,"scissors",TRUE,1,1117,"negative","nothing"
"402",1389,149,"F",35,"english",13,2,"phones",FALSE,1,1157,"negative","item"
"403",139,372,"M",35,"English",11,3,"plants",TRUE,1,892,"negative","nothing"
"404",1390,149,"F",35,"english",14,1,"rainboots",FALSE,1,1381,"positive","nothing"
"405",1391,149,"F",35,"english",15,0,"donuts",TRUE,1,1550,"negative","nothing"
"406",1392,149,"F",35,"english",16,0,"mittens",FALSE,1,2202,"positive","nothing"
"407",1393,149,"F",35,"english",17,1,"ice cream cones",FALSE,1,927,"negative","item"
"408",1394,149,"F",35,"english",18,3,"lollipops",TRUE,1,1184,"negative","nothing"
"409",1395,149,"F",35,"english",19,2,"balloons",FALSE,0,710,"positive","item"
"410",1396,149,"F",35,"english",20,3,"carrots",FALSE,1,868,"positive","nothing"
"411",1397,149,"F",35,"english",21,3,"cars",FALSE,1,1490,"negative","item"
"412",1398,149,"F",35,"english",22,2,"shovels",TRUE,1,2160,"positive","item"
"413",1399,149,"F",35,"english",23,3,"bananas",TRUE,1,947,"positive","item"
"414",14,279,"M",35,"English",14,1,"apples",FALSE,1,836,"positive","nothing"
"415",140,372,"M",35,"English",12,3,"kites",TRUE,1,767,"negative","nothing"
"416",1400,149,"F",35,"english",24,0,"presents",FALSE,1,757,"negative","item"
"417",1401,149,"F",35,"english",25,0,"guitars",FALSE,1,1320,"positive","nothing"
"418",1402,149,"F",35,"english",26,3,"fish",TRUE,1,1098,"negative","nothing"
"419",1403,149,"F",35,"english",27,3,"crayons",TRUE,1,580,"positive","item"
"420",1404,149,"F",35,"english",28,2,"bows",FALSE,1,2479,"positive","nothing"
"421",1405,149,"F",35,"english",29,1,"cats",TRUE,1,840,"positive","item"
"422",1406,149,"F",35,"english",30,2,"daisies",FALSE,1,1276,"positive","nothing"
"423",1407,149,"F",35,"english",31,1,"apples",TRUE,0,640,"positive","nothing"
"424",1408,149,"F",35,"english",32,3,"buckets",FALSE,1,1290,"positive","nothing"
"425",1409,395,"F",25,"english",1,1,"daisies",FALSE,1,982,"negative","item"
"426",141,372,"M",35,"English",13,0,"bows",FALSE,1,1125,"positive","nothing"
"427",1410,395,"F",25,"english",2,0,"cookies",TRUE,1,1353,"negative","nothing"
"428",1411,395,"F",25,"english",3,1,"flowers",FALSE,1,886,"negative","item"
"429",1412,395,"F",25,"english",4,3,"cakes",TRUE,1,1298,"positive","item"
"430",1413,395,"F",25,"english",5,0,"phones",FALSE,1,1178,"positive","nothing"
"431",1414,395,"F",25,"english",6,2,"lollipops",FALSE,1,878,"positive","nothing"
"432",1415,395,"F",25,"english",7,1,"kites",FALSE,1,1277,"positive","nothing"
"433",1416,395,"F",25,"english",8,2,"bows",TRUE,1,1428,"positive","item"
"434",1417,395,"F",25,"english",9,3,"mittens",TRUE,1,1674,"negative","nothing"
"435",1418,395,"F",25,"english",10,0,"buckets",TRUE,1,1191,"negative","nothing"
"436",1419,395,"F",25,"english",11,0,"cars",FALSE,1,2292,"negative","item"
"437",142,372,"M",35,"English",14,0,"carrots",TRUE,1,580,"positive","item"
"438",1420,395,"F",25,"english",12,1,"apples",TRUE,1,1160,"negative","nothing"
"439",1421,395,"F",25,"english",13,2,"fish",FALSE,1,1334,"negative","item"
"440",1422,395,"F",25,"english",14,2,"crayons",TRUE,1,1054,"negative","nothing"
"441",1423,395,"F",25,"english",15,3,"shovels",FALSE,1,1601,"positive","nothing"
"442",1424,395,"F",25,"english",16,0,"keys",FALSE,1,876,"negative","item"
"443",1425,395,"F",25,"english",17,2,"purses",TRUE,1,1728,"negative","nothing"
"444",1426,395,"F",25,"english",18,3,"rainboots",TRUE,1,1179,"negative","nothing"
"445",1427,395,"F",25,"english",19,3,"donuts",FALSE,1,1115,"negative","item"
"446",1428,395,"F",25,"english",20,2,"pencils",FALSE,1,1703,"positive","nothing"
"447",1429,395,"F",25,"english",21,1,"cats",TRUE,1,1210,"positive","item"
"448",143,372,"M",35,"English",15,1,"cookies",FALSE,1,1110,"negative","item"
"449",1430,395,"F",25,"english",22,1,"forks",FALSE,1,922,"positive","nothing"
"450",1431,395,"F",25,"english",23,3,"dogs",FALSE,1,953,"positive","nothing"
"451",1432,395,"F",25,"english",24,0,"carrots",TRUE,1,979,"positive","item"
"452",1433,395,"F",25,"english",25,3,"bananas",FALSE,1,1153,"negative","item"
"453",1434,395,"F",25,"english",26,0,"umbrellas",TRUE,1,1454,"positive","item"
"454",1435,395,"F",25,"english",27,2,"ice cream cones",FALSE,1,1716,"negative","item"
"455",1436,395,"F",25,"english",28,3,"scissors",TRUE,1,968,"positive","item"
"456",1437,395,"F",25,"english",29,2,"guitars",TRUE,1,816,"positive","item"
"457",1438,395,"F",25,"english",30,1,"plants",TRUE,1,991,"negative","nothing"
"458",1439,395,"F",25,"english",31,1,"balloons",TRUE,1,1121,"positive","item"
"459",144,372,"M",35,"English",16,0,"pencils",TRUE,1,672,"positive","item"
"460",1440,395,"F",25,"english",32,0,"presents",FALSE,1,1200,"positive","nothing"
"461",1441,347,"M",35,"english",1,0,"umbrellas",TRUE,1,1247,"negative","nothing"
"462",1442,347,"M",35,"english",2,3,"cars",TRUE,1,1597,"positive","item"
"463",1443,347,"M",35,"english",3,2,"keys",TRUE,1,783,"positive","item"
"464",1444,347,"M",35,"english",4,1,"mittens",TRUE,1,769,"positive","item"
"465",1445,347,"M",35,"english",5,1,"dogs",TRUE,1,1099,"negative","nothing"
"466",1446,347,"M",35,"english",6,0,"purses",TRUE,1,1483,"negative","nothing"
"467",1447,347,"M",35,"english",7,3,"cats",TRUE,1,992,"negative","nothing"
"468",1448,347,"M",35,"english",8,1,"cookies",FALSE,1,1193,"negative","item"
"469",1449,347,"M",35,"english",9,2,"ice cream cones",TRUE,1,1142,"positive","item"
"470",145,372,"M",35,"English",17,2,"umbrellas",FALSE,1,845,"positive","nothing"
"471",1450,347,"M",35,"english",10,1,"kites",FALSE,1,698,"positive","nothing"
"472",1451,347,"M",35,"english",11,3,"cakes",FALSE,1,949,"positive","nothing"
"473",1452,347,"M",35,"english",12,1,"buckets",TRUE,1,1263,"negative","nothing"
"474",1453,347,"M",35,"english",13,1,"crayons",FALSE,1,1088,"positive","nothing"
"475",1454,347,"M",35,"english",14,1,"guitars",FALSE,1,837,"negative","item"
"476",1455,347,"M",35,"english",15,2,"flowers",TRUE,1,1277,"negative","nothing"
"477",1456,347,"M",35,"english",16,2,"lollipops",FALSE,1,786,"positive","nothing"
"478",1457,347,"M",35,"english",17,0,"apples",FALSE,1,995,"positive","nothing"
"479",1458,347,"M",35,"english",18,0,"bananas",FALSE,1,1027,"positive","nothing"
"480",1459,347,"M",35,"english",19,0,"presents",FALSE,1,1097,"negative","item"
"481",146,372,"M",35,"English",18,0,"ice cream cones",FALSE,1,1017,"negative","item"
"482",1460,347,"M",35,"english",20,3,"forks",TRUE,1,1184,"negative","nothing"
"483",1461,347,"M",35,"english",21,3,"shovels",FALSE,1,1186,"negative","item"
"484",1462,347,"M",35,"english",22,3,"daisies",FALSE,0,1144,"positive","item"
"485",1463,347,"M",35,"english",23,2,"bows",FALSE,1,2410,"negative","item"
"486",1464,347,"M",35,"english",24,0,"balloons",TRUE,1,1114,"positive","item"
"487",1465,347,"M",35,"english",25,2,"donuts",FALSE,1,886,"negative","item"
"488",1466,347,"M",35,"english",26,0,"phones",TRUE,1,1327,"positive","item"
"489",1467,347,"M",35,"english",27,1,"scissors",TRUE,1,1164,"positive","item"
"490",1468,347,"M",35,"english",28,2,"plants",FALSE,1,1443,"positive","nothing"
"491",1469,347,"M",35,"english",29,3,"pencils",FALSE,1,937,"positive","nothing"
"492",147,372,"M",35,"English",19,0,"phones",TRUE,1,1361,"negative","nothing"
"493",1470,347,"M",35,"english",30,2,"rainboots",TRUE,1,1744,"negative","nothing"
"494",1471,347,"M",35,"english",31,0,"carrots",FALSE,1,1756,"negative","item"
"495",1472,347,"M",35,"english",32,3,"fish",FALSE,1,1270,"negative","item"
"496",1473,223,"F",55,"English",1,3,"plants",TRUE,1,1769,"negative","nothing"
"497",1474,223,"F",55,"English",2,1,"shovels",FALSE,1,1610,"positive","nothing"
"498",1475,223,"F",55,"English",3,1,"presents",TRUE,1,1413,"negative","nothing"
"499",1476,223,"F",55,"English",4,2,"balloons",TRUE,1,1038,"negative","nothing"
"500",1477,223,"F",55,"English",5,3,"cookies",TRUE,1,1259,"positive","item"
"501",1478,223,"F",55,"English",6,2,"mittens",TRUE,1,961,"positive","item"
"502",1479,223,"F",55,"English",7,1,"donuts",FALSE,1,1217,"negative","item"
"503",148,372,"M",35,"English",20,3,"scissors",FALSE,1,816,"positive","nothing"
"504",1480,223,"F",55,"English",8,1,"kites",TRUE,1,1401,"negative","nothing"
"505",1481,223,"F",55,"English",9,0,"carrots",TRUE,1,2897,"negative","nothing"
"506",1482,223,"F",55,"English",10,1,"phones",FALSE,1,3697,"negative","item"
"507",1483,223,"F",55,"English",11,1,"ice cream cones",TRUE,1,1757,"positive","item"
"508",1484,223,"F",55,"English",12,3,"keys",FALSE,1,1205,"positive","nothing"
"509",1485,223,"F",55,"English",13,3,"buckets",FALSE,1,1458,"positive","nothing"
"510",1486,223,"F",55,"English",14,1,"rainboots",TRUE,1,1005,"positive","item"
"511",1487,223,"F",55,"English",15,2,"forks",FALSE,1,1128,"negative","item"
"512",1488,223,"F",55,"English",16,0,"lollipops",FALSE,1,1144,"negative","item"
"513",1489,223,"F",55,"English",17,2,"cakes",FALSE,1,1416,"positive","nothing"
"514",149,372,"M",35,"English",21,1,"flowers",TRUE,1,845,"negative","nothing"
"515",1490,223,"F",55,"English",18,0,"cats",TRUE,1,2194,"negative","nothing"
"516",1491,223,"F",55,"English",19,2,"dogs",TRUE,1,1189,"negative","nothing"
"517",1492,223,"F",55,"English",20,0,"purses",FALSE,1,1415,"positive","nothing"
"518",1493,223,"F",55,"English",21,2,"daisies",TRUE,1,893,"positive","item"
"519",1494,223,"F",55,"English",22,3,"pencils",TRUE,1,836,"positive","item"
"520",1495,223,"F",55,"English",23,0,"cars",TRUE,1,724,"positive","item"
"521",1496,223,"F",55,"English",24,3,"scissors",TRUE,1,1668,"negative","nothing"
"522",1497,223,"F",55,"English",25,0,"bows",FALSE,1,929,"negative","item"
"523",1498,223,"F",55,"English",26,1,"crayons",FALSE,1,1050,"positive","nothing"
"524",1499,223,"F",55,"English",27,0,"fish",FALSE,1,1272,"positive","nothing"
"525",15,279,"M",35,"English",15,2,"plants",FALSE,1,790,"negative","item"
"526",150,372,"M",35,"English",22,1,"purses",FALSE,1,640,"positive","nothing"
"527",1500,223,"F",55,"English",28,2,"flowers",FALSE,1,1249,"negative","item"
"528",1501,223,"F",55,"English",29,3,"apples",TRUE,0,1517,"negative","item"
"529",1502,223,"F",55,"English",30,2,"bananas",FALSE,1,1191,"positive","nothing"
"530",1503,223,"F",55,"English",31,0,"umbrellas",TRUE,1,1330,"positive","item"
"531",1504,223,"F",55,"English",32,3,"guitars",FALSE,1,1046,"negative","item"
"532",1505,75,"M",35,"English",1,2,"bows",FALSE,1,1626,"negative","item"
"533",1506,75,"M",35,"English",2,0,"ice cream cones",TRUE,1,1520,"negative","nothing"
"534",1507,75,"M",35,"English",3,2,"umbrellas",FALSE,1,1180,"positive","nothing"
"535",1508,75,"M",35,"English",4,3,"apples",TRUE,1,1186,"negative","nothing"
"536",1509,75,"M",35,"English",5,1,"balloons",FALSE,1,1033,"positive","nothing"
"537",151,372,"M",35,"English",23,3,"cats",FALSE,1,985,"positive","nothing"
"538",1510,75,"M",35,"English",6,1,"plants",FALSE,1,1310,"negative","item"
"539",1511,75,"M",35,"English",7,1,"shovels",TRUE,1,1277,"negative","nothing"
"540",1512,75,"M",35,"English",8,0,"forks",TRUE,1,2737,"negative","nothing"
"541",1513,75,"M",35,"English",9,2,"lollipops",TRUE,1,842,"positive","item"
"542",1514,75,"M",35,"English",10,0,"pencils",TRUE,1,1578,"positive","item"
"543",1515,75,"M",35,"English",11,3,"flowers",TRUE,1,1460,"negative","nothing"
"544",1516,75,"M",35,"English",12,1,"bananas",TRUE,1,740,"positive","item"
"545",1517,75,"M",35,"English",13,0,"daisies",FALSE,1,1120,"negative","item"
"546",1518,75,"M",35,"English",14,3,"guitars",FALSE,1,1579,"positive","nothing"
"547",1519,75,"M",35,"English",15,0,"cars",FALSE,1,1228,"positive","nothing"
"548",152,372,"M",35,"English",24,0,"presents",FALSE,1,985,"negative","item"
"549",1520,75,"M",35,"English",16,0,"dogs",TRUE,1,567,"positive","item"
"550",1521,75,"M",35,"English",17,1,"carrots",TRUE,1,1662,"positive","item"
"551",1522,75,"M",35,"English",18,1,"fish",TRUE,1,940,"negative","nothing"
"552",1523,75,"M",35,"English",19,1,"presents",FALSE,1,1140,"negative","item"
"553",1524,75,"M",35,"English",20,0,"scissors",FALSE,1,939,"positive","nothing"
"554",1525,75,"M",35,"English",21,3,"phones",FALSE,1,1040,"negative","item"
"555",1526,75,"M",35,"English",22,3,"mittens",FALSE,1,1426,"positive","nothing"
"556",1527,75,"M",35,"English",23,3,"donuts",FALSE,1,1181,"negative","item"
"557",1528,75,"M",35,"English",24,2,"rainboots",TRUE,1,1219,"negative","nothing"
"558",1529,75,"M",35,"English",25,3,"buckets",TRUE,1,1228,"positive","item"
"559",153,372,"M",35,"English",25,3,"shovels",FALSE,1,1219,"negative","item"
"560",1530,75,"M",35,"English",26,2,"cookies",TRUE,1,734,"positive","item"
"561",1531,75,"M",35,"English",27,1,"cats",FALSE,1,744,"positive","nothing"
"562",1532,75,"M",35,"English",28,0,"kites",FALSE,1,1049,"negative","item"
"563",1533,75,"M",35,"English",29,2,"keys",FALSE,1,696,"positive","nothing"
"564",1534,75,"M",35,"English",30,3,"cakes",TRUE,1,781,"positive","item"
"565",1535,75,"M",35,"English",31,2,"crayons",TRUE,1,1333,"negative","nothing"
"566",1536,75,"M",35,"English",32,2,"purses",FALSE,1,1344,"negative","item"
"567",1537,250,"M",35,"English",1,3,"cookies",FALSE,1,1800,"negative","item"
"568",1538,250,"M",35,"English",2,0,"daisies",TRUE,1,1876,"positive","item"
"569",1539,250,"M",35,"English",3,1,"guitars",FALSE,1,1743,"positive","nothing"
"570",154,372,"M",35,"English",26,1,"guitars",TRUE,1,581,"positive","item"
"571",1540,250,"M",35,"English",4,1,"cats",FALSE,1,2007,"negative","item"
"572",1541,250,"M",35,"English",5,1,"kites",FALSE,1,1444,"positive","nothing"
"573",1542,250,"M",35,"English",6,1,"presents",TRUE,1,2303,"negative","nothing"
"574",1543,250,"M",35,"English",7,2,"plants",TRUE,1,1647,"negative","nothing"
"575",1544,250,"M",35,"English",8,3,"phones",FALSE,1,2360,"positive","nothing"
"576",1545,250,"M",35,"English",9,2,"apples",FALSE,1,1473,"positive","nothing"
"577",1546,250,"M",35,"English",10,0,"ice cream cones",TRUE,1,1802,"negative","nothing"
"578",1547,250,"M",35,"English",11,3,"cakes",FALSE,1,2395,"negative","item"
"579",1548,250,"M",35,"English",12,3,"cars",TRUE,1,1332,"positive","item"
"580",1549,250,"M",35,"English",13,2,"keys",TRUE,1,1098,"positive","item"
"581",155,372,"M",35,"English",27,1,"cars",FALSE,1,845,"positive","nothing"
"582",1550,250,"M",35,"English",14,2,"shovels",FALSE,1,1580,"positive","nothing"
"583",1551,250,"M",35,"English",15,0,"lollipops",FALSE,1,1237,"negative","item"
"584",1552,250,"M",35,"English",16,3,"dogs",TRUE,1,2143,"negative","nothing"
"585",1553,250,"M",35,"English",17,0,"fish",TRUE,1,1835,"negative","nothing"
"586",1554,250,"M",35,"English",18,2,"scissors",TRUE,1,1471,"negative","nothing"
"587",1555,250,"M",35,"English",19,1,"bananas",TRUE,1,878,"positive","item"
"588",1556,250,"M",35,"English",20,1,"pencils",TRUE,1,1393,"negative","nothing"
"589",1557,250,"M",35,"English",21,2,"crayons",FALSE,1,2081,"negative","item"
"590",1558,250,"M",35,"English",22,1,"balloons",TRUE,1,1365,"positive","item"
"591",1559,250,"M",35,"English",23,0,"forks",FALSE,1,1846,"positive","nothing"
"592",156,372,"M",35,"English",28,2,"dogs",FALSE,1,719,"negative","item"
"593",1560,250,"M",35,"English",24,3,"flowers",TRUE,1,1486,"positive","item"
"594",1561,250,"M",35,"English",25,1,"purses",FALSE,1,1962,"negative","item"
"595",1562,250,"M",35,"English",26,0,"mittens",FALSE,1,2598,"positive","nothing"
"596",1563,250,"M",35,"English",27,3,"umbrellas",FALSE,1,1504,"positive","nothing"
"597",1564,250,"M",35,"English",28,2,"carrots",FALSE,1,2520,"negative","item"
"598",1565,250,"M",35,"English",29,0,"donuts",FALSE,1,1461,"negative","item"
"599",1566,250,"M",35,"English",30,3,"buckets",FALSE,0,1816,"negative","nothing"
"600",1567,250,"M",35,"English",31,2,"rainboots",TRUE,1,2050,"positive","item"
"601",1568,250,"M",35,"English",32,0,"bows",TRUE,1,1330,"positive","item"
"602",1569,267,"M",35,"English",1,2,"mittens",FALSE,1,1616,"positive","nothing"
"603",157,372,"M",35,"English",29,3,"balloons",TRUE,1,812,"positive","item"
"604",1570,267,"M",35,"English",2,2,"buckets",TRUE,1,1267,"negative","nothing"
"605",1571,267,"M",35,"English",3,3,"scissors",FALSE,1,1232,"negative","item"
"606",1572,267,"M",35,"English",4,0,"shovels",TRUE,1,1480,"negative","nothing"
"607",1573,267,"M",35,"English",5,1,"cakes",TRUE,1,1043,"positive","item"
"608",1574,267,"M",35,"English",6,2,"plants",FALSE,1,865,"negative","item"
"609",1575,267,"M",35,"English",7,3,"phones",FALSE,1,1457,"positive","nothing"
"610",1576,267,"M",35,"English",8,0,"guitars",TRUE,1,828,"positive","item"
"611",1577,267,"M",35,"English",9,0,"bows",FALSE,0,1583,"negative","nothing"
"612",1578,267,"M",35,"English",10,2,"dogs",TRUE,1,797,"positive","item"
"613",1579,267,"M",35,"English",11,3,"ice cream cones",FALSE,1,1082,"positive","nothing"
"614",158,372,"M",35,"English",30,3,"crayons",FALSE,1,787,"negative","item"
"615",1580,267,"M",35,"English",12,3,"umbrellas",TRUE,1,955,"negative","nothing"
"616",1581,267,"M",35,"English",13,3,"purses",TRUE,1,1059,"positive","item"
"617",1582,267,"M",35,"English",14,2,"pencils",FALSE,1,1173,"positive","nothing"
"618",1583,267,"M",35,"English",15,3,"fish",FALSE,1,1017,"negative","item"
"619",1584,267,"M",35,"English",16,0,"bananas",TRUE,1,938,"positive","item"
"620",1585,267,"M",35,"English",17,1,"crayons",TRUE,1,1126,"negative","nothing"
"621",1586,267,"M",35,"English",18,1,"kites",TRUE,1,1075,"negative","nothing"
"622",1587,267,"M",35,"English",19,1,"presents",TRUE,1,890,"positive","item"
"623",1588,267,"M",35,"English",20,0,"forks",FALSE,1,1274,"positive","nothing"
"624",1589,267,"M",35,"English",21,1,"lollipops",FALSE,1,1390,"positive","nothing"
"625",159,372,"M",35,"English",31,3,"lollipops",TRUE,1,704,"positive","item"
"626",1590,267,"M",35,"English",22,0,"flowers",FALSE,1,1457,"negative","item"
"627",1591,267,"M",35,"English",23,3,"balloons",TRUE,1,1787,"positive","item"
"628",1592,267,"M",35,"English",24,3,"carrots",TRUE,1,1352,"negative","nothing"
"629",1593,267,"M",35,"English",25,2,"daisies",TRUE,1,1527,"negative","nothing"
"630",1594,267,"M",35,"English",26,2,"cats",TRUE,1,1121,"positive","item"
"631",1595,267,"M",35,"English",27,0,"apples",TRUE,0,1691,"positive","nothing"
"632",1596,267,"M",35,"English",28,1,"cars",FALSE,1,1995,"negative","item"
"633",1597,267,"M",35,"English",29,1,"rainboots",FALSE,1,2433,"positive","nothing"
"634",1598,267,"M",35,"English",30,1,"keys",FALSE,1,3389,"negative","item"
"635",1599,267,"M",35,"English",31,2,"cookies",FALSE,1,2875,"negative","item"
"636",16,279,"M",35,"English",16,3,"bananas",TRUE,1,504,"positive","item"
"637",160,372,"M",35,"English",32,1,"bananas",TRUE,1,923,"negative","nothing"
"638",1600,267,"M",35,"English",32,0,"donuts",FALSE,1,1185,"negative","item"
"639",1601,436,"F",25,"English",1,3,"carrots",FALSE,1,1862,"positive","nothing"
"640",1602,436,"F",25,"English",2,0,"lollipops",FALSE,0,971,"negative","nothing"
"641",1603,436,"F",25,"English",3,0,"cars",TRUE,1,707,"positive","item"
"642",1604,436,"F",25,"English",4,2,"mittens",TRUE,0,779,"positive","nothing"
"643",1605,436,"F",25,"English",5,3,"scissors",TRUE,1,845,"positive","item"
"644",1606,436,"F",25,"English",6,1,"buckets",TRUE,1,923,"negative","nothing"
"645",1607,436,"F",25,"English",7,3,"plants",FALSE,1,826,"positive","nothing"
"646",1608,436,"F",25,"English",8,0,"balloons",TRUE,1,1407,"negative","nothing"
"647",1609,436,"F",25,"English",9,0,"rainboots",FALSE,1,1384,"positive","nothing"
"648",161,296,"M",35,"English",1,1,"cats",TRUE,1,852,"positive","item"
"649",1610,436,"F",25,"English",10,2,"crayons",TRUE,1,1450,"negative","nothing"
"650",1611,436,"F",25,"English",11,0,"umbrellas",FALSE,1,906,"negative","item"
"651",1612,436,"F",25,"English",12,2,"phones",TRUE,0,1001,"negative","item"
"652",1613,436,"F",25,"English",13,1,"ice cream cones",FALSE,1,1252,"negative","item"
"653",1614,436,"F",25,"English",14,2,"fish",TRUE,1,628,"positive","item"
"654",1615,436,"F",25,"English",15,2,"donuts",FALSE,1,602,"negative","item"
"655",1616,436,"F",25,"English",16,0,"dogs",TRUE,1,591,"positive","item"
"656",1617,436,"F",25,"English",17,2,"flowers",TRUE,1,1112,"negative","nothing"
"657",1618,436,"F",25,"English",18,0,"shovels",FALSE,1,1140,"negative","item"
"658",1619,436,"F",25,"English",19,1,"daisies",TRUE,1,1753,"positive","item"
"659",162,296,"M",35,"English",2,3,"bows",TRUE,1,1320,"negative","nothing"
"660",1620,436,"F",25,"English",20,3,"kites",FALSE,0,1036,"negative","nothing"
"661",1621,436,"F",25,"English",21,1,"purses",FALSE,1,1097,"positive","nothing"
"662",1622,436,"F",25,"English",22,0,"pencils",FALSE,1,1206,"positive","nothing"
"663",1623,436,"F",25,"English",23,3,"forks",TRUE,1,1126,"positive","item"
"664",1624,436,"F",25,"English",24,1,"bows",TRUE,1,982,"positive","item"
"665",1625,436,"F",25,"English",25,3,"cakes",TRUE,1,1066,"negative","nothing"
"666",1626,436,"F",25,"English",26,3,"cats",FALSE,1,735,"negative","item"
"667",1627,436,"F",25,"English",27,2,"cookies",TRUE,1,657,"positive","item"
"668",1628,436,"F",25,"English",28,1,"bananas",FALSE,1,800,"negative","item"
"669",1629,436,"F",25,"English",29,1,"keys",TRUE,0,733,"positive","nothing"
"670",163,296,"M",35,"English",3,3,"fish",FALSE,1,1045,"negative","item"
"671",1630,436,"F",25,"English",30,3,"apples",FALSE,1,754,"negative","item"
"672",1631,436,"F",25,"English",31,1,"guitars",TRUE,1,784,"negative","nothing"
"673",1632,436,"F",25,"English",32,2,"presents",FALSE,1,955,"positive","nothing"
"674",1633,303,"M",35,"english",1,0,"lollipops",TRUE,1,1326,"positive","item"
"675",1634,303,"M",35,"english",2,3,"mittens",TRUE,1,1345,"positive","item"
"676",1635,303,"M",35,"english",3,1,"presents",FALSE,1,1567,"negative","item"
"677",1636,303,"M",35,"english",4,0,"purses",FALSE,1,984,"negative","item"
"678",1637,303,"M",35,"english",5,1,"crayons",TRUE,1,1259,"positive","item"
"679",1638,303,"M",35,"english",6,2,"donuts",FALSE,1,776,"negative","item"
"680",1639,303,"M",35,"english",7,2,"balloons",FALSE,1,1147,"positive","nothing"
"681",164,296,"M",35,"English",4,2,"rainboots",TRUE,0,1127,"negative","item"
"682",1640,303,"M",35,"english",8,3,"cars",TRUE,1,1054,"negative","nothing"
"683",1641,303,"M",35,"english",9,1,"dogs",FALSE,1,2478,"positive","nothing"
"684",1642,303,"M",35,"english",10,1,"carrots",TRUE,1,1255,"negative","nothing"
"685",1643,303,"M",35,"english",11,2,"apples",TRUE,1,957,"positive","item"
"686",1644,303,"M",35,"english",12,2,"rainboots",TRUE,1,1077,"negative","nothing"
"687",1645,303,"M",35,"english",13,3,"guitars",FALSE,1,1686,"negative","item"
"688",1646,303,"M",35,"english",14,3,"keys",TRUE,1,845,"positive","item"
"689",1647,303,"M",35,"english",15,0,"phones",TRUE,1,1605,"negative","nothing"
"690",1648,303,"M",35,"english",16,1,"pencils",TRUE,1,1309,"negative","nothing"
"691",1649,303,"M",35,"english",17,0,"daisies",FALSE,1,1377,"positive","nothing"
"692",165,296,"M",35,"English",5,3,"carrots",FALSE,1,1315,"positive","nothing"
"693",1650,303,"M",35,"english",18,3,"plants",TRUE,1,1989,"negative","nothing"
"694",1651,303,"M",35,"english",19,1,"scissors",FALSE,1,1218,"positive","nothing"
"695",1652,303,"M",35,"english",20,0,"cookies",TRUE,1,1476,"negative","nothing"
"696",1653,303,"M",35,"english",21,3,"bows",FALSE,1,1050,"positive","nothing"
"697",1654,303,"M",35,"english",22,2,"umbrellas",TRUE,1,1131,"negative","nothing"
"698",1655,303,"M",35,"english",23,3,"bananas",FALSE,1,1671,"positive","nothing"
"699",1656,303,"M",35,"english",24,2,"kites",FALSE,1,1322,"positive","nothing"
"700",1657,303,"M",35,"english",25,3,"forks",FALSE,1,1034,"negative","item"
"701",1658,303,"M",35,"english",26,0,"shovels",FALSE,1,1281,"positive","nothing"
"702",1659,303,"M",35,"english",27,2,"fish",FALSE,1,1711,"negative","item"
"703",166,296,"M",35,"English",6,1,"guitars",FALSE,1,821,"positive","nothing"
"704",1660,303,"M",35,"english",28,1,"buckets",TRUE,1,1598,"positive","item"
"705",1661,303,"M",35,"english",29,0,"cats",TRUE,1,914,"positive","item"
"706",1662,303,"M",35,"english",30,2,"ice cream cones",TRUE,1,1645,"positive","item"
"707",1663,303,"M",35,"english",31,1,"cakes",FALSE,1,904,"negative","item"
"708",1664,303,"M",35,"english",32,0,"flowers",FALSE,1,1197,"negative","item"
"709",1665,403,"M",55,"english",1,3,"donuts",FALSE,1,2387,"negative","item"
"710",1666,403,"M",55,"english",2,1,"bows",FALSE,1,1604,"negative","item"
"711",1667,403,"M",55,"english",3,3,"fish",FALSE,0,1022,"negative","nothing"
"712",1668,403,"M",55,"english",4,2,"daisies",FALSE,1,1447,"positive","nothing"
"713",1669,403,"M",55,"english",5,3,"cars",FALSE,1,1471,"negative","item"
"714",167,296,"M",35,"English",7,2,"kites",TRUE,1,1456,"positive","item"
"715",1670,403,"M",55,"english",6,1,"pencils",TRUE,1,1507,"positive","item"
"716",1671,403,"M",55,"english",7,1,"apples",FALSE,1,1805,"positive","nothing"
"717",1672,403,"M",55,"english",8,3,"cakes",FALSE,1,1024,"positive","nothing"
"718",1673,403,"M",55,"english",9,0,"buckets",TRUE,1,2294,"negative","nothing"
"719",1674,403,"M",55,"english",10,2,"mittens",FALSE,1,1250,"negative","item"
"720",1675,403,"M",55,"english",11,0,"rainboots",TRUE,1,1823,"negative","nothing"
"721",1676,403,"M",55,"english",12,0,"presents",TRUE,1,1059,"positive","item"
"722",1677,403,"M",55,"english",13,2,"balloons",FALSE,1,944,"positive","nothing"
"723",1678,403,"M",55,"english",14,0,"cats",FALSE,1,1478,"positive","nothing"
"724",1679,403,"M",55,"english",15,2,"scissors",TRUE,1,801,"positive","item"
"725",168,296,"M",35,"English",8,0,"phones",FALSE,1,4737,"negative","item"
"726",1680,403,"M",55,"english",16,3,"shovels",FALSE,1,1182,"positive","nothing"
"727",1681,403,"M",55,"english",17,2,"umbrellas",TRUE,1,1518,"negative","nothing"
"728",1682,403,"M",55,"english",18,1,"phones",TRUE,1,2121,"negative","nothing"
"729",1683,403,"M",55,"english",19,1,"purses",TRUE,1,6357,"negative","nothing"
"730",1684,403,"M",55,"english",20,2,"crayons",FALSE,1,1788,"negative","item"
"731",1685,403,"M",55,"english",21,0,"dogs",FALSE,1,1309,"positive","nothing"
"732",1686,403,"M",55,"english",22,3,"plants",TRUE,1,1272,"negative","nothing"
"733",1687,403,"M",55,"english",23,0,"kites",TRUE,1,1175,"positive","item"
"734",1688,403,"M",55,"english",24,0,"flowers",FALSE,1,1157,"negative","item"
"735",1689,403,"M",55,"english",25,2,"cookies",TRUE,1,1307,"positive","item"
"736",169,296,"M",35,"English",9,3,"cars",TRUE,1,1246,"positive","item"
"737",1690,403,"M",55,"english",26,1,"keys",TRUE,1,903,"positive","item"
"738",1691,403,"M",55,"english",27,1,"forks",FALSE,1,1336,"positive","nothing"
"739",1692,403,"M",55,"english",28,3,"carrots",TRUE,1,1293,"positive","item"
"740",1693,403,"M",55,"english",29,3,"bananas",TRUE,1,894,"positive","item"
"741",1694,403,"M",55,"english",30,2,"lollipops",TRUE,1,1527,"negative","nothing"
"742",1695,403,"M",55,"english",31,0,"ice cream cones",FALSE,1,1628,"negative","item"
"743",1696,403,"M",55,"english",32,1,"guitars",FALSE,1,2312,"negative","item"
"744",1697,159,"F",25,"English",1,0,"mittens",TRUE,1,1445,"negative","nothing"
"745",1698,159,"F",25,"English",2,3,"plants",FALSE,1,786,"positive","nothing"
"746",1699,159,"F",25,"English",3,0,"flowers",FALSE,0,505,"positive","item"
"747",17,279,"M",35,"English",17,1,"purses",FALSE,1,1086,"positive","nothing"
"748",170,296,"M",35,"English",10,2,"flowers",TRUE,0,2070,"positive","nothing"
"749",1700,159,"F",25,"English",4,2,"cookies",FALSE,0,545,"positive","item"
"750",1701,159,"F",25,"English",5,0,"lollipops",FALSE,1,876,"negative","item"
"751",1702,159,"F",25,"English",6,2,"cats",FALSE,1,645,"negative","item"
"752",1703,159,"F",25,"English",7,3,"dogs",TRUE,1,679,"positive","item"
"753",1704,159,"F",25,"English",8,2,"crayons",FALSE,1,1086,"positive","nothing"
"754",1705,159,"F",25,"English",9,0,"cakes",TRUE,1,774,"positive","item"
"755",1706,159,"F",25,"English",10,3,"balloons",FALSE,1,1013,"positive","nothing"
"756",1707,159,"F",25,"English",11,3,"pencils",TRUE,1,1539,"negative","nothing"
"757",1708,159,"F",25,"English",12,0,"bows",FALSE,1,976,"positive","nothing"
"758",1709,159,"F",25,"English",13,3,"buckets",FALSE,1,861,"negative","item"
"759",171,296,"M",35,"English",11,0,"plants",TRUE,1,806,"positive","item"
"760",1710,159,"F",25,"English",14,1,"keys",TRUE,1,489,"positive","item"
"761",1711,159,"F",25,"English",15,3,"carrots",TRUE,1,504,"positive","item"
"762",1712,159,"F",25,"English",16,1,"ice cream cones",FALSE,1,1149,"positive","nothing"
"763",1713,159,"F",25,"English",17,1,"purses",FALSE,1,1660,"negative","item"
"764",1714,159,"F",25,"English",18,2,"cars",TRUE,1,872,"negative","nothing"
"765",1715,159,"F",25,"English",19,2,"forks",FALSE,1,560,"negative","item"
"766",1716,159,"F",25,"English",20,3,"presents",TRUE,1,1085,"negative","nothing"
"767",1717,159,"F",25,"English",21,1,"kites",TRUE,1,772,"negative","nothing"
"768",1718,159,"F",25,"English",22,1,"apples",FALSE,1,1168,"negative","item"
"769",1719,159,"F",25,"English",23,2,"daisies",TRUE,1,836,"negative","nothing"
"770",172,296,"M",35,"English",12,0,"ice cream cones",TRUE,0,3091,"positive","nothing"
"771",1720,159,"F",25,"English",24,1,"phones",TRUE,1,1508,"negative","nothing"
"772",1721,159,"F",25,"English",25,1,"shovels",FALSE,1,1146,"positive","nothing"
"773",1722,159,"F",25,"English",26,2,"guitars",FALSE,1,770,"positive","nothing"
"774",1723,159,"F",25,"English",27,0,"rainboots",FALSE,1,846,"positive","nothing"
"775",1724,159,"F",25,"English",28,0,"umbrellas",FALSE,1,618,"negative","item"
"776",1725,159,"F",25,"English",29,0,"donuts",TRUE,1,950,"negative","nothing"
"777",1726,159,"F",25,"English",30,2,"bananas",TRUE,1,536,"positive","item"
"778",1727,159,"F",25,"English",31,1,"scissors",TRUE,1,965,"positive","item"
"779",1728,159,"F",25,"English",32,3,"fish",FALSE,1,701,"negative","item"
"780",1729,93,"M",55,"english",1,3,"plants",FALSE,1,1476,"positive","nothing"
"781",173,296,"M",35,"English",13,3,"keys",TRUE,0,4369,"positive","nothing"
"782",1730,93,"M",55,"english",2,2,"cakes",FALSE,1,1447,"negative","item"
"783",1731,93,"M",55,"english",3,2,"forks",FALSE,1,1298,"positive","nothing"
"784",1732,93,"M",55,"english",4,2,"fish",TRUE,1,1369,"positive","item"
"785",1733,93,"M",55,"english",5,2,"carrots",FALSE,1,1640,"positive","nothing"
"786",1734,93,"M",55,"english",6,0,"crayons",TRUE,0,1211,"negative","item"
"787",1735,93,"M",55,"english",7,0,"purses",TRUE,1,1430,"negative","nothing"
"788",1736,93,"M",55,"english",8,3,"pencils",TRUE,1,1183,"negative","nothing"
"789",1737,93,"M",55,"english",9,1,"bananas",TRUE,1,1502,"negative","nothing"
"790",1738,93,"M",55,"english",10,1,"guitars",TRUE,1,1013,"negative","nothing"
"791",1739,93,"M",55,"english",11,0,"rainboots",FALSE,1,1417,"negative","item"
"792",174,296,"M",35,"English",14,2,"forks",FALSE,0,16990,"negative","nothing"
"793",1740,93,"M",55,"english",12,3,"bows",FALSE,1,1290,"positive","nothing"
"794",1741,93,"M",55,"english",13,0,"umbrellas",FALSE,1,1291,"positive","nothing"
"795",1742,93,"M",55,"english",14,0,"dogs",TRUE,1,902,"positive","item"
"796",1743,93,"M",55,"english",15,3,"keys",TRUE,1,1120,"negative","nothing"
"797",1744,93,"M",55,"english",16,1,"cars",FALSE,1,1050,"positive","nothing"
"798",1745,93,"M",55,"english",17,2,"cookies",TRUE,1,773,"positive","item"
"799",1746,93,"M",55,"english",18,1,"balloons",TRUE,1,623,"positive","item"
"800",1747,93,"M",55,"english",19,2,"daisies",TRUE,1,1207,"negative","nothing"
"801",1748,93,"M",55,"english",20,0,"scissors",TRUE,1,1207,"negative","nothing"
"802",1749,93,"M",55,"english",21,0,"lollipops",TRUE,1,667,"positive","item"
"803",175,296,"M",35,"English",15,1,"daisies",FALSE,1,1683,"positive","nothing"
"804",1750,93,"M",55,"english",22,3,"flowers",FALSE,1,1118,"negative","item"
"805",1751,93,"M",55,"english",23,3,"mittens",TRUE,1,737,"positive","item"
"806",1752,93,"M",55,"english",24,1,"kites",TRUE,1,878,"positive","item"
"807",1753,93,"M",55,"english",25,1,"phones",FALSE,1,862,"positive","nothing"
"808",1754,93,"M",55,"english",26,3,"presents",TRUE,1,1013,"positive","item"
"809",1755,93,"M",55,"english",27,1,"donuts",FALSE,1,934,"negative","item"
"810",1756,93,"M",55,"english",28,3,"cats",FALSE,1,805,"negative","item"
"811",1757,93,"M",55,"english",29,0,"apples",FALSE,1,874,"positive","nothing"
"812",1758,93,"M",55,"english",30,2,"buckets",TRUE,1,802,"negative","nothing"
"813",1759,93,"M",55,"english",31,2,"shovels",FALSE,1,733,"negative","item"
"814",176,296,"M",35,"English",16,2,"shovels",FALSE,0,2610,"negative","nothing"
"815",1760,93,"M",55,"english",32,1,"ice cream cones",TRUE,0,1063,"negative","item"
"816",1761,384,"F",25,"English",1,0,"umbrellas",TRUE,1,674,"positive","item"
"817",1762,384,"F",25,"English",2,1,"donuts",TRUE,1,795,"negative","nothing"
"818",1763,384,"F",25,"English",3,0,"rainboots",TRUE,1,1432,"negative","nothing"
"819",1764,384,"F",25,"English",4,0,"purses",FALSE,1,997,"positive","nothing"
"820",1765,384,"F",25,"English",5,1,"cats",FALSE,1,534,"positive","nothing"
"821",1766,384,"F",25,"English",6,0,"plants",FALSE,1,674,"negative","item"
"822",1767,384,"F",25,"English",7,3,"daisies",FALSE,1,870,"negative","item"
"823",1768,384,"F",25,"English",8,3,"guitars",TRUE,1,1846,"negative","nothing"
"824",1769,384,"F",25,"English",9,2,"balloons",FALSE,1,1116,"positive","nothing"
"825",177,296,"M",35,"English",17,3,"umbrellas",TRUE,1,594,"positive","item"
"826",1770,384,"F",25,"English",10,3,"presents",FALSE,1,945,"negative","item"
"827",1771,384,"F",25,"English",11,1,"fish",FALSE,0,621,"positive","item"
"828",1772,384,"F",25,"English",12,1,"mittens",TRUE,1,705,"positive","item"
"829",1773,384,"F",25,"English",13,2,"flowers",FALSE,1,1176,"negative","item"
"830",1774,384,"F",25,"English",14,0,"bows",FALSE,1,653,"negative","item"
"831",1775,384,"F",25,"English",15,3,"keys",TRUE,1,545,"positive","item"
"832",1776,384,"F",25,"English",16,0,"shovels",FALSE,0,1109,"negative","nothing"
"833",1777,384,"F",25,"English",17,2,"ice cream cones",FALSE,1,786,"positive","nothing"
"834",1778,384,"F",25,"English",18,0,"dogs",FALSE,1,821,"positive","nothing"
"835",1779,384,"F",25,"English",19,2,"forks",FALSE,1,744,"negative","item"
"836",178,296,"M",35,"English",18,0,"apples",TRUE,1,10209,"negative","nothing"
"837",1780,384,"F",25,"English",20,1,"bananas",FALSE,1,457,"positive","nothing"
"838",1781,384,"F",25,"English",21,2,"phones",TRUE,1,801,"negative","nothing"
"839",1782,384,"F",25,"English",22,1,"cars",TRUE,1,731,"negative","nothing"
"840",1783,384,"F",25,"English",23,0,"cakes",TRUE,1,841,"positive","item"
"841",1784,384,"F",25,"English",24,1,"scissors",FALSE,1,609,"negative","item"
"842",1785,384,"F",25,"English",25,2,"crayons",TRUE,1,511,"positive","item"
"843",1786,384,"F",25,"English",26,2,"pencils",FALSE,0,689,"negative","nothing"
"844",1787,384,"F",25,"English",27,3,"apples",TRUE,1,726,"negative","nothing"
"845",1788,384,"F",25,"English",28,2,"kites",TRUE,1,441,"positive","item"
"846",1789,384,"F",25,"English",29,3,"lollipops",FALSE,1,976,"positive","nothing"
"847",179,296,"M",35,"English",19,2,"bananas",FALSE,1,1033,"negative","item"
"848",1790,384,"F",25,"English",30,3,"buckets",TRUE,1,697,"positive","item"
"849",1791,384,"F",25,"English",31,1,"cookies",FALSE,1,1012,"negative","item"
"850",1792,384,"F",25,"English",32,3,"carrots",FALSE,1,723,"positive","nothing"
"851",1793,350,"F",35,"English",1,1,"cookies",FALSE,1,726,"positive","nothing"
"852",1794,350,"F",35,"English",2,3,"purses",TRUE,1,1025,"negative","nothing"
"853",1795,350,"F",35,"English",3,0,"balloons",FALSE,1,998,"negative","item"
"854",1796,350,"F",35,"English",4,3,"keys",TRUE,1,1079,"positive","item"
"855",1797,350,"F",35,"English",5,2,"cars",FALSE,1,727,"positive","nothing"
"856",1798,350,"F",35,"English",6,2,"carrots",FALSE,1,1247,"positive","nothing"
"857",1799,350,"F",35,"English",7,0,"shovels",FALSE,1,925,"negative","item"
"858",18,279,"M",35,"English",18,0,"daisies",FALSE,0,652,"negative","nothing"
"859",180,296,"M",35,"English",20,1,"cookies",FALSE,0,3190,"negative","nothing"
"860",1800,350,"F",35,"English",8,2,"phones",FALSE,1,672,"negative","item"
"861",1801,350,"F",35,"English",9,2,"rainboots",TRUE,1,783,"negative","nothing"
"862",1802,350,"F",35,"English",10,0,"flowers",TRUE,1,1010,"positive","item"
"863",1803,350,"F",35,"English",11,0,"fish",TRUE,1,954,"negative","nothing"
"864",1804,350,"F",35,"English",12,1,"crayons",FALSE,1,758,"negative","item"
"865",1805,350,"F",35,"English",13,1,"mittens",TRUE,1,702,"positive","item"
"866",1806,350,"F",35,"English",14,3,"bananas",TRUE,0,1033,"positive","nothing"
"867",1807,350,"F",35,"English",15,0,"apples",TRUE,1,970,"negative","nothing"
"868",1808,350,"F",35,"English",16,0,"kites",FALSE,1,651,"positive","nothing"
"869",1809,350,"F",35,"English",17,2,"daisies",TRUE,1,829,"negative","nothing"
"870",181,296,"M",35,"English",21,1,"crayons",FALSE,1,3849,"negative","item"
"871",1810,350,"F",35,"English",18,1,"dogs",TRUE,1,958,"negative","nothing"
"872",1811,350,"F",35,"English",19,2,"plants",TRUE,1,875,"positive","item"
"873",1812,350,"F",35,"English",20,1,"cats",TRUE,1,720,"negative","nothing"
"874",1813,350,"F",35,"English",21,3,"buckets",FALSE,1,847,"negative","item"
"875",1814,350,"F",35,"English",22,2,"lollipops",TRUE,1,833,"positive","item"
"876",1815,350,"F",35,"English",23,3,"scissors",FALSE,0,958,"negative","nothing"
"877",1816,350,"F",35,"English",24,2,"presents",FALSE,1,1238,"negative","item"
"878",1817,350,"F",35,"English",25,3,"ice cream cones",TRUE,1,919,"positive","item"
"879",1818,350,"F",35,"English",26,3,"pencils",FALSE,1,882,"negative","item"
"880",1819,350,"F",35,"English",27,1,"bows",FALSE,1,980,"negative","item"
"881",182,296,"M",35,"English",22,0,"pencils",FALSE,1,899,"negative","item"
"882",1820,350,"F",35,"English",28,1,"umbrellas",TRUE,1,937,"positive","item"
"883",1821,350,"F",35,"English",29,1,"guitars",FALSE,1,751,"positive","nothing"
"884",1822,350,"F",35,"English",30,3,"cakes",FALSE,1,898,"positive","nothing"
"885",1823,350,"F",35,"English",31,0,"donuts",TRUE,1,1023,"positive","item"
"886",1824,350,"F",35,"English",32,0,"forks",FALSE,1,811,"positive","nothing"
"887",1825,433,"M",25,"English",1,1,"cakes",FALSE,1,1283,"positive","nothing"
"888",1826,433,"M",25,"English",2,3,"donuts",FALSE,1,985,"positive","nothing"
"889",1827,433,"M",25,"English",3,0,"mittens",TRUE,1,1452,"negative","nothing"
"890",1828,433,"M",25,"English",4,0,"fish",FALSE,1,879,"negative","item"
"891",1829,433,"M",25,"English",5,3,"keys",FALSE,1,907,"positive","nothing"
"892",183,296,"M",35,"English",23,1,"lollipops",FALSE,1,909,"negative","item"
"893",1830,433,"M",25,"English",6,2,"buckets",FALSE,1,782,"positive","nothing"
"894",1831,433,"M",25,"English",7,2,"guitars",TRUE,1,567,"positive","item"
"895",1832,433,"M",25,"English",8,2,"phones",FALSE,1,845,"negative","item"
"896",1833,433,"M",25,"English",9,0,"kites",TRUE,1,747,"positive","item"
"897",1834,433,"M",25,"English",10,1,"cookies",FALSE,1,1124,"negative","item"
"898",1835,433,"M",25,"English",11,2,"shovels",FALSE,1,1188,"negative","item"
"899",1836,433,"M",25,"English",12,3,"bananas",FALSE,1,881,"negative","item"
"900",1837,433,"M",25,"English",13,1,"presents",TRUE,1,1060,"positive","item"
"901",1838,433,"M",25,"English",14,1,"ice cream cones",TRUE,1,895,"positive","item"
"902",1839,433,"M",25,"English",15,0,"forks",TRUE,1,545,"positive","item"
"903",184,296,"M",35,"English",24,3,"purses",FALSE,0,1152,"negative","nothing"
"904",1840,433,"M",25,"English",16,0,"plants",TRUE,1,1188,"negative","nothing"
"905",1841,433,"M",25,"English",17,3,"pencils",TRUE,1,719,"positive","item"
"906",1842,433,"M",25,"English",18,0,"dogs",FALSE,1,926,"positive","nothing"
"907",1843,433,"M",25,"English",19,1,"carrots",FALSE,1,1109,"negative","item"
"908",1844,433,"M",25,"English",20,1,"purses",TRUE,1,1093,"negative","nothing"
"909",1845,433,"M",25,"English",21,3,"umbrellas",TRUE,1,671,"negative","nothing"
"910",1846,433,"M",25,"English",22,2,"lollipops",TRUE,1,790,"negative","nothing"
"911",1847,433,"M",25,"English",23,1,"scissors",TRUE,1,991,"negative","nothing"
"912",1848,433,"M",25,"English",24,3,"cats",FALSE,1,1210,"negative","item"
"913",1849,433,"M",25,"English",25,2,"apples",FALSE,1,972,"positive","nothing"
"914",185,296,"M",35,"English",25,2,"buckets",FALSE,1,1880,"positive","nothing"
"915",1850,433,"M",25,"English",26,0,"bows",FALSE,1,1321,"negative","item"
"916",1851,433,"M",25,"English",27,0,"crayons",FALSE,1,911,"positive","nothing"
"917",1852,433,"M",25,"English",28,1,"rainboots",FALSE,1,1162,"positive","nothing"
"918",1853,433,"M",25,"English",29,2,"cars",FALSE,0,1000,"positive","item"
"919",1854,433,"M",25,"English",30,2,"balloons",TRUE,1,1026,"negative","nothing"
"920",1855,433,"M",25,"English",31,3,"flowers",FALSE,0,1172,"positive","item"
"921",1856,433,"M",25,"English",32,3,"daisies",TRUE,1,1057,"negative","nothing"
"922",1857,109,"M",35,"English",1,1,"forks",TRUE,1,1086,"negative","nothing"
"923",1858,109,"M",35,"English",2,1,"guitars",TRUE,1,541,"negative","nothing"
"924",1859,109,"M",35,"English",3,1,"pencils",FALSE,1,776,"negative","item"
"925",186,296,"M",35,"English",26,1,"balloons",TRUE,1,1054,"negative","nothing"
"926",1860,109,"M",35,"English",4,2,"bows",FALSE,1,675,"negative","item"
"927",1861,109,"M",35,"English",5,0,"cars",FALSE,0,706,"negative","nothing"
"928",1862,109,"M",35,"English",6,3,"cookies",FALSE,1,478,"negative","item"
"929",1863,109,"M",35,"English",7,0,"daisies",TRUE,1,940,"positive","item"
"930",1864,109,"M",35,"English",8,1,"cats",TRUE,1,580,"positive","item"
"931",1865,109,"M",35,"English",9,2,"bananas",TRUE,1,775,"negative","nothing"
"932",1866,109,"M",35,"English",10,0,"presents",FALSE,1,799,"positive","nothing"
"933",1867,109,"M",35,"English",11,2,"flowers",TRUE,1,493,"negative","nothing"
"934",1868,109,"M",35,"English",12,2,"plants",TRUE,1,570,"positive","item"
"935",1869,109,"M",35,"English",13,2,"rainboots",FALSE,1,817,"positive","nothing"
"936",187,296,"M",35,"English",27,3,"mittens",FALSE,1,1143,"negative","item"
"937",1870,109,"M",35,"English",14,1,"dogs",FALSE,1,589,"negative","item"
"938",1871,109,"M",35,"English",15,0,"buckets",FALSE,1,501,"negative","item"
"939",1872,109,"M",35,"English",16,2,"carrots",FALSE,1,768,"negative","item"
"940",1873,109,"M",35,"English",17,3,"apples",TRUE,1,506,"negative","nothing"
"941",1874,109,"M",35,"English",18,3,"balloons",FALSE,1,831,"positive","nothing"
"942",1875,109,"M",35,"English",19,0,"scissors",FALSE,1,595,"positive","nothing"
"943",1876,109,"M",35,"English",20,0,"lollipops",TRUE,1,623,"positive","item"
"944",1877,109,"M",35,"English",21,3,"donuts",TRUE,1,740,"positive","item"
"945",1878,109,"M",35,"English",22,0,"shovels",FALSE,0,821,"negative","nothing"
"946",1879,109,"M",35,"English",23,0,"ice cream cones",FALSE,1,830,"negative","item"
"947",188,296,"M",35,"English",28,0,"cakes",FALSE,0,1275,"negative","nothing"
"948",1880,109,"M",35,"English",24,1,"kites",FALSE,1,815,"positive","nothing"
"949",1881,109,"M",35,"English",25,2,"purses",TRUE,1,595,"positive","item"
"950",1882,109,"M",35,"English",26,3,"mittens",FALSE,1,849,"negative","item"
"951",1883,109,"M",35,"English",27,1,"fish",TRUE,1,921,"positive","item"
"952",1884,109,"M",35,"English",28,2,"keys",TRUE,0,657,"positive","nothing"
"953",1885,109,"M",35,"English",29,3,"umbrellas",FALSE,1,1232,"positive","nothing"
"954",1886,109,"M",35,"English",30,3,"phones",TRUE,1,971,"negative","nothing"
"955",1887,109,"M",35,"English",31,3,"crayons",TRUE,1,774,"positive","item"
"956",1888,109,"M",35,"English",32,1,"cakes",FALSE,1,1062,"positive","nothing"
"957",1889,488,"F",35,"English",1,0,"crayons",TRUE,1,1310,"positive","item"
"958",189,296,"M",35,"English",29,0,"scissors",TRUE,1,1457,"positive","item"
"959",1890,488,"F",35,"English",2,3,"flowers",FALSE,1,1270,"negative","item"
"960",1891,488,"F",35,"English",3,2,"bows",FALSE,1,964,"negative","item"
"961",1892,488,"F",35,"English",4,0,"cakes",TRUE,1,590,"positive","item"
"962",1893,488,"F",35,"English",5,0,"fish",TRUE,1,1450,"negative","nothing"
"963",1894,488,"F",35,"English",6,1,"cats",FALSE,1,714,"negative","item"
"964",1895,488,"F",35,"English",7,3,"carrots",TRUE,1,573,"positive","item"
"965",1896,488,"F",35,"English",8,2,"rainboots",FALSE,1,1143,"negative","item"
"966",1897,488,"F",35,"English",9,1,"balloons",TRUE,1,954,"negative","nothing"
"967",1898,488,"F",35,"English",10,1,"plants",TRUE,1,637,"positive","item"
"968",1899,488,"F",35,"English",11,2,"bananas",FALSE,1,1182,"positive","nothing"
"969",19,279,"M",35,"English",19,0,"lollipops",FALSE,1,818,"positive","nothing"
"970",190,296,"M",35,"English",30,2,"presents",TRUE,1,869,"positive","item"
"971",1900,488,"F",35,"English",12,1,"shovels",TRUE,1,1077,"positive","item"
"972",1901,488,"F",35,"English",13,1,"daisies",FALSE,1,771,"positive","nothing"
"973",1902,488,"F",35,"English",14,2,"keys",FALSE,1,933,"positive","nothing"
"974",1903,488,"F",35,"English",15,2,"cookies",TRUE,1,666,"negative","nothing"
"975",1904,488,"F",35,"English",16,3,"umbrellas",TRUE,1,529,"positive","item"
"976",1905,488,"F",35,"English",17,3,"scissors",TRUE,1,802,"negative","nothing"
"977",1906,488,"F",35,"English",18,2,"buckets",TRUE,1,791,"positive","item"
"978",1907,488,"F",35,"English",19,1,"phones",TRUE,1,999,"negative","nothing"
"979",1908,488,"F",35,"English",20,0,"apples",FALSE,1,1097,"negative","item"
"980",1909,488,"F",35,"English",21,3,"ice cream cones",TRUE,1,1249,"negative","nothing"
"981",191,296,"M",35,"English",31,1,"dogs",TRUE,1,2002,"positive","item"
"982",1910,488,"F",35,"English",22,0,"guitars",FALSE,1,1224,"negative","item"
"983",1911,488,"F",35,"English",23,0,"mittens",TRUE,1,1392,"negative","nothing"
"984",1912,488,"F",35,"English",24,0,"forks",FALSE,1,1243,"positive","nothing"
"985",1913,488,"F",35,"English",25,2,"purses",TRUE,1,1781,"positive","item"
"986",1914,488,"F",35,"English",26,3,"presents",TRUE,0,1434,"positive","nothing"
"987",1915,488,"F",35,"English",27,1,"lollipops",FALSE,1,1323,"positive","nothing"
"988",1916,488,"F",35,"English",28,3,"cars",FALSE,1,1186,"positive","nothing"
"989",1917,488,"F",35,"English",29,1,"dogs",FALSE,1,774,"negative","item"
"990",1918,488,"F",35,"English",30,3,"donuts",FALSE,1,1093,"negative","item"
"991",1919,488,"F",35,"English",31,0,"pencils",FALSE,1,997,"positive","nothing"
"992",192,296,"M",35,"English",32,0,"donuts",TRUE,0,896,"positive","nothing"
"993",1920,488,"F",35,"English",32,2,"kites",TRUE,1,780,"negative","nothing"
"994",1921,284,"M",35,"English",1,2,"fish",FALSE,1,1430,"positive","nothing"
"995",1922,284,"M",35,"English",2,2,"daisies",TRUE,1,926,"positive","item"
"996",1923,284,"M",35,"English",3,1,"cookies",TRUE,1,1132,"negative","nothing"
"997",1924,284,"M",35,"English",4,0,"forks",TRUE,1,956,"positive","item"
"998",1925,284,"M",35,"English",5,2,"balloons",TRUE,1,1146,"positive","item"
"999",1926,284,"M",35,"English",6,3,"dogs",FALSE,1,1408,"negative","item"
"1000",1927,284,"M",35,"English",7,0,"umbrellas",TRUE,1,1107,"negative","nothing"
"1001",1928,284,"M",35,"English",8,1,"donuts",FALSE,1,1651,"positive","nothing"
"1002",1929,284,"M",35,"English",9,2,"cakes",TRUE,1,1024,"negative","nothing"
"1003",193,80,"M",35,"English",1,3,"purses",TRUE,1,1253,"negative","nothing"
"1004",1930,284,"M",35,"English",10,0,"ice cream cones",FALSE,1,1115,"positive","nothing"
"1005",1931,284,"M",35,"English",11,1,"cats",FALSE,1,2206,"positive","nothing"
"1006",1932,284,"M",35,"English",12,3,"bananas",FALSE,1,1111,"positive","nothing"
"1007",1933,284,"M",35,"English",13,1,"shovels",FALSE,1,716,"negative","item"
"1008",1934,284,"M",35,"English",14,1,"keys",TRUE,1,1493,"positive","item"
"1009",1935,284,"M",35,"English",15,0,"purses",FALSE,1,906,"positive","nothing"
"1010",1936,284,"M",35,"English",16,2,"cars",TRUE,1,2735,"negative","nothing"
"1011",1937,284,"M",35,"English",17,3,"mittens",TRUE,1,1718,"positive","item"
"1012",1938,284,"M",35,"English",18,2,"scissors",FALSE,1,1494,"negative","item"
"1013",1939,284,"M",35,"English",19,3,"rainboots",FALSE,1,1452,"negative","item"
"1014",194,80,"M",35,"English",2,2,"flowers",TRUE,1,1326,"negative","nothing"
"1015",1940,284,"M",35,"English",20,1,"phones",TRUE,1,794,"negative","nothing"
"1016",1941,284,"M",35,"English",21,0,"apples",TRUE,1,1992,"positive","item"
"1017",1942,284,"M",35,"English",22,2,"carrots",FALSE,1,2435,"positive","nothing"
"1018",1943,284,"M",35,"English",23,2,"crayons",FALSE,1,1007,"negative","item"
"1019",1944,284,"M",35,"English",24,3,"bows",TRUE,1,1809,"positive","item"
"1020",1945,284,"M",35,"English",25,1,"lollipops",FALSE,1,756,"negative","item"
"1021",1946,284,"M",35,"English",26,0,"presents",TRUE,1,1141,"negative","nothing"
"1022",1947,284,"M",35,"English",27,0,"kites",FALSE,1,1235,"negative","item"
"1023",1948,284,"M",35,"English",28,3,"guitars",TRUE,1,1822,"negative","nothing"
"1024",1949,284,"M",35,"English",29,1,"plants",TRUE,1,1316,"positive","item"
"1025",195,80,"M",35,"English",3,1,"guitars",TRUE,1,917,"negative","nothing"
"1026",1950,284,"M",35,"English",30,3,"flowers",FALSE,1,2584,"positive","nothing"
"1027",1951,284,"M",35,"English",31,3,"buckets",TRUE,1,1022,"negative","nothing"
"1028",1952,284,"M",35,"English",32,0,"pencils",FALSE,1,1222,"negative","item"
"1029",1953,448,"M",45,"English",1,3,"flowers",TRUE,1,1091,"negative","nothing"
"1030",1954,448,"M",45,"English",2,3,"dogs",FALSE,1,1331,"positive","nothing"
"1031",1955,448,"M",45,"English",3,1,"balloons",FALSE,1,959,"negative","item"
"1032",1956,448,"M",45,"English",4,0,"apples",TRUE,1,1372,"negative","nothing"
"1033",1957,448,"M",45,"English",5,2,"donuts",FALSE,1,1618,"positive","nothing"
"1034",1958,448,"M",45,"English",6,2,"cats",FALSE,1,976,"positive","nothing"
"1035",1959,448,"M",45,"English",7,0,"bananas",TRUE,1,1841,"negative","nothing"
"1036",196,80,"M",35,"English",4,1,"shovels",TRUE,1,1580,"negative","nothing"
"1037",1960,448,"M",45,"English",8,1,"rainboots",TRUE,1,1090,"negative","nothing"
"1038",1961,448,"M",45,"English",9,3,"plants",TRUE,1,1456,"positive","item"
"1039",1962,448,"M",45,"English",10,1,"daisies",TRUE,1,933,"positive","item"
"1040",1963,448,"M",45,"English",11,0,"bows",FALSE,1,1465,"positive","nothing"
"1041",1964,448,"M",45,"English",12,1,"mittens",FALSE,1,1479,"negative","item"
"1042",1965,448,"M",45,"English",13,2,"kites",TRUE,1,1181,"positive","item"
"1043",1966,448,"M",45,"English",14,1,"cars",TRUE,1,621,"positive","item"
"1044",1967,448,"M",45,"English",15,0,"cookies",FALSE,1,748,"negative","item"
"1045",1968,448,"M",45,"English",16,3,"lollipops",FALSE,1,1381,"negative","item"
"1046",1969,448,"M",45,"English",17,1,"guitars",TRUE,1,1570,"negative","nothing"
"1047",197,80,"M",35,"English",5,2,"buckets",TRUE,1,721,"negative","nothing"
"1048",1970,448,"M",45,"English",18,0,"purses",FALSE,1,1134,"positive","nothing"
"1049",1971,448,"M",45,"English",19,1,"scissors",FALSE,1,1495,"positive","nothing"
"1050",1972,448,"M",45,"English",20,2,"crayons",FALSE,1,867,"negative","item"
"1051",1973,448,"M",45,"English",21,2,"buckets",TRUE,1,1067,"positive","item"
"1052",1974,448,"M",45,"English",22,3,"carrots",FALSE,1,902,"positive","nothing"
"1053",1975,448,"M",45,"English",23,3,"fish",TRUE,1,1510,"negative","nothing"
"1054",1976,448,"M",45,"English",24,2,"pencils",FALSE,1,1161,"negative","item"
"1055",1977,448,"M",45,"English",25,0,"umbrellas",FALSE,1,778,"negative","item"
"1056",1978,448,"M",45,"English",26,0,"ice cream cones",TRUE,1,914,"positive","item"
"1057",1979,448,"M",45,"English",27,1,"keys",FALSE,1,930,"positive","nothing"
"1058",198,80,"M",35,"English",6,1,"keys",FALSE,1,1739,"positive","nothing"
"1059",1980,448,"M",45,"English",28,3,"shovels",FALSE,1,871,"negative","item"
"1060",1981,448,"M",45,"English",29,2,"cakes",TRUE,1,900,"negative","nothing"
"1061",1982,448,"M",45,"English",30,0,"phones",TRUE,1,960,"positive","item"
"1062",1983,448,"M",45,"English",31,2,"presents",FALSE,0,937,"negative","nothing"
"1063",1984,448,"M",45,"English",32,3,"forks",TRUE,1,1330,"positive","item"
"1064",1985,293,"M",35,"English",1,0,"purses",FALSE,1,2899,"positive","nothing"
"1065",1986,293,"M",35,"English",2,2,"keys",FALSE,1,2117,"negative","item"
"1066",1987,293,"M",35,"English",3,1,"guitars",TRUE,1,1669,"negative","nothing"
"1067",1988,293,"M",35,"English",4,2,"apples",TRUE,1,1054,"positive","item"
"1068",1989,293,"M",35,"English",5,1,"presents",TRUE,1,1463,"positive","item"
"1069",199,80,"M",35,"English",7,0,"cookies",FALSE,1,1549,"negative","item"
"1070",1990,293,"M",35,"English",6,3,"rainboots",TRUE,1,1470,"positive","item"
"1071",1991,293,"M",35,"English",7,2,"shovels",FALSE,1,1221,"positive","nothing"
"1072",1992,293,"M",35,"English",8,0,"lollipops",TRUE,1,1092,"positive","item"
"1073",1993,293,"M",35,"English",9,0,"kites",FALSE,1,894,"negative","item"
"1074",1994,293,"M",35,"English",10,3,"bows",FALSE,1,3278,"negative","item"
"1075",1995,293,"M",35,"English",11,3,"fish",FALSE,1,1486,"positive","nothing"
"1076",1996,293,"M",35,"English",12,3,"bananas",TRUE,1,1413,"positive","item"
"1077",1997,293,"M",35,"English",13,1,"plants",FALSE,1,894,"positive","nothing"
"1078",1998,293,"M",35,"English",14,1,"cookies",FALSE,1,814,"positive","nothing"
"1079",1999,293,"M",35,"English",15,2,"umbrellas",TRUE,1,1461,"negative","nothing"
"1080",2,279,"M",35,"English",2,0,"rainboots",TRUE,1,818,"positive","item"
"1081",20,279,"M",35,"English",20,2,"keys",TRUE,1,491,"positive","item"
"1082",200,80,"M",35,"English",8,3,"balloons",TRUE,1,1325,"positive","item"
"1083",2000,293,"M",35,"English",16,2,"mittens",TRUE,1,1021,"negative","nothing"
"1084",2001,293,"M",35,"English",17,3,"daisies",TRUE,1,1469,"negative","nothing"
"1085",2002,293,"M",35,"English",18,3,"buckets",FALSE,1,829,"positive","nothing"
"1086",2003,293,"M",35,"English",19,3,"crayons",TRUE,1,997,"negative","nothing"
"1087",2004,293,"M",35,"English",20,0,"donuts",FALSE,1,1447,"positive","nothing"
"1088",2005,293,"M",35,"English",21,2,"pencils",FALSE,1,2012,"positive","nothing"
"1089",2006,293,"M",35,"English",22,1,"scissors",TRUE,1,1223,"negative","nothing"
"1090",2007,293,"M",35,"English",23,0,"ice cream cones",TRUE,1,1421,"positive","item"
"1091",2008,293,"M",35,"English",24,0,"cats",TRUE,1,2414,"negative","nothing"
"1092",2009,293,"M",35,"English",25,1,"balloons",TRUE,1,837,"positive","item"
"1093",201,80,"M",35,"English",9,0,"kites",TRUE,1,1579,"positive","item"
"1094",2010,293,"M",35,"English",26,2,"phones",FALSE,1,1028,"negative","item"
"1095",2011,293,"M",35,"English",27,0,"cars",FALSE,1,1015,"negative","item"
"1096",2012,293,"M",35,"English",28,0,"dogs",TRUE,1,1487,"negative","nothing"
"1097",2013,293,"M",35,"English",29,1,"cakes",FALSE,1,811,"negative","item"
"1098",2014,293,"M",35,"English",30,1,"flowers",FALSE,1,1200,"negative","item"
"1099",2015,293,"M",35,"English",31,2,"forks",TRUE,1,983,"positive","item"
"1100",2016,293,"M",35,"English",32,3,"carrots",FALSE,1,848,"negative","item"
"1101",2017,14,"M",35,"English",1,2,"pencils",FALSE,1,1540,"negative","item"
"1102",2018,14,"M",35,"English",2,2,"umbrellas",TRUE,1,1593,"positive","item"
"1103",2019,14,"M",35,"English",3,1,"mittens",TRUE,1,1699,"positive","item"
"1104",202,80,"M",35,"English",10,2,"phones",TRUE,1,1838,"positive","item"
"1105",2020,14,"M",35,"English",4,0,"keys",FALSE,1,4045,"positive","nothing"
"1106",2021,14,"M",35,"English",5,3,"phones",TRUE,1,1389,"positive","item"
"1107",2022,14,"M",35,"English",6,2,"flowers",FALSE,1,1828,"negative","item"
"1108",2023,14,"M",35,"English",7,2,"donuts",TRUE,1,1171,"positive","item"
"1109",2024,14,"M",35,"English",8,0,"bows",TRUE,1,1043,"positive","item"
"1110",2025,14,"M",35,"English",9,3,"scissors",FALSE,0,1125,"negative","nothing"
"1111",2026,14,"M",35,"English",10,1,"kites",FALSE,0,1332,"negative","nothing"
"1112",2027,14,"M",35,"English",11,3,"rainboots",FALSE,1,2396,"negative","item"
"1113",2028,14,"M",35,"English",12,3,"bananas",FALSE,1,1378,"positive","nothing"
"1114",2029,14,"M",35,"English",13,1,"cats",FALSE,1,2165,"negative","item"
"1115",203,80,"M",35,"English",11,3,"donuts",FALSE,1,1072,"negative","item"
"1116",2030,14,"M",35,"English",14,3,"fish",TRUE,1,2147,"positive","item"
"1117",2031,14,"M",35,"English",15,0,"cookies",TRUE,1,2739,"negative","nothing"
"1118",2032,14,"M",35,"English",16,0,"dogs",FALSE,1,1483,"positive","nothing"
"1119",2033,14,"M",35,"English",17,2,"ice cream cones",FALSE,1,1875,"positive","nothing"
"1120",2034,14,"M",35,"English",18,2,"crayons",TRUE,1,1909,"negative","nothing"
"1121",2035,14,"M",35,"English",19,1,"balloons",FALSE,1,1251,"negative","item"
"1122",2036,14,"M",35,"English",20,2,"presents",TRUE,1,1717,"negative","nothing"
"1123",2037,14,"M",35,"English",21,2,"purses",FALSE,1,1691,"positive","nothing"
"1124",2038,14,"M",35,"English",22,1,"daisies",FALSE,1,1076,"positive","nothing"
"1125",2039,14,"M",35,"English",23,3,"forks",FALSE,1,1022,"negative","item"
"1126",204,80,"M",35,"English",12,0,"ice cream cones",FALSE,1,2274,"negative","item"
"1127",2040,14,"M",35,"English",24,1,"lollipops",TRUE,1,1067,"positive","item"
"1128",2041,14,"M",35,"English",25,1,"cakes",TRUE,1,2037,"negative","nothing"
"1129",2042,14,"M",35,"English",26,0,"plants",TRUE,1,884,"positive","item"
"1130",2043,14,"M",35,"English",27,3,"carrots",FALSE,1,1142,"positive","nothing"
"1131",2044,14,"M",35,"English",28,0,"shovels",TRUE,1,1629,"negative","nothing"
"1132",2045,14,"M",35,"English",29,1,"guitars",FALSE,1,2437,"positive","nothing"
"1133",2046,14,"M",35,"English",30,0,"cars",FALSE,1,1735,"negative","item"
"1134",2047,14,"M",35,"English",31,0,"apples",FALSE,1,1377,"negative","item"
"1135",2048,14,"M",35,"English",32,3,"buckets",TRUE,1,1185,"negative","nothing"
"1136",2049,143,"M",25,"English",1,3,"keys",FALSE,1,1040,"positive","nothing"
"1137",205,80,"M",35,"English",13,3,"apples",FALSE,1,1757,"positive","nothing"
"1138",2050,143,"M",25,"English",2,3,"daisies",TRUE,1,1074,"positive","item"
"1139",2051,143,"M",25,"English",3,0,"cats",TRUE,1,824,"positive","item"
"1140",2052,143,"M",25,"English",4,3,"flowers",TRUE,1,1085,"negative","nothing"
"1141",2053,143,"M",25,"English",5,2,"phones",TRUE,1,825,"positive","item"
"1142",2054,143,"M",25,"English",6,0,"kites",FALSE,1,1176,"negative","item"
"1143",2055,143,"M",25,"English",7,2,"cars",FALSE,1,1446,"negative","item"
"1144",2056,143,"M",25,"English",8,2,"fish",FALSE,1,894,"positive","nothing"
"1145",2057,143,"M",25,"English",9,1,"umbrellas",FALSE,1,1537,"negative","item"
"1146",2058,143,"M",25,"English",10,0,"scissors",FALSE,1,2138,"negative","item"
"1147",2059,143,"M",25,"English",11,2,"dogs",TRUE,1,1193,"positive","item"
"1148",206,80,"M",35,"English",14,0,"mittens",TRUE,1,1275,"negative","nothing"
"1149",2060,143,"M",25,"English",12,1,"rainboots",TRUE,1,1947,"negative","nothing"
"1150",2061,143,"M",25,"English",13,3,"pencils",FALSE,1,757,"negative","item"
"1151",2062,143,"M",25,"English",14,1,"ice cream cones",TRUE,1,913,"negative","nothing"
"1152",2063,143,"M",25,"English",15,3,"mittens",FALSE,1,977,"negative","item"
"1153",2064,143,"M",25,"English",16,3,"crayons",FALSE,1,1739,"positive","nothing"
"1154",2065,143,"M",25,"English",17,3,"bananas",TRUE,1,1128,"negative","nothing"
"1155",2066,143,"M",25,"English",18,0,"cookies",TRUE,1,2028,"negative","nothing"
"1156",2067,143,"M",25,"English",19,1,"balloons",TRUE,1,1204,"positive","item"
"1157",2068,143,"M",25,"English",20,1,"presents",FALSE,1,1276,"positive","nothing"
"1158",2069,143,"M",25,"English",21,0,"lollipops",TRUE,1,1353,"negative","nothing"
"1159",207,80,"M",35,"English",15,1,"forks",FALSE,1,1693,"negative","item"
"1160",2070,143,"M",25,"English",22,2,"carrots",FALSE,1,1597,"positive","nothing"
"1161",2071,143,"M",25,"English",23,1,"purses",FALSE,1,1587,"negative","item"
"1162",2072,143,"M",25,"English",24,0,"forks",FALSE,1,1386,"positive","nothing"
"1163",2073,143,"M",25,"English",25,0,"plants",TRUE,1,1027,"positive","item"
"1164",2074,143,"M",25,"English",26,2,"bows",TRUE,1,1427,"negative","nothing"
"1165",2075,143,"M",25,"English",27,3,"cakes",TRUE,1,724,"positive","item"
"1166",2076,143,"M",25,"English",28,2,"donuts",FALSE,1,1138,"negative","item"
"1167",2077,143,"M",25,"English",29,1,"guitars",FALSE,1,1192,"positive","nothing"
"1168",2078,143,"M",25,"English",30,1,"buckets",TRUE,1,1126,"positive","item"
"1169",2079,143,"M",25,"English",31,0,"apples",FALSE,1,1087,"positive","nothing"
"1170",208,80,"M",35,"English",16,1,"crayons",TRUE,1,1023,"positive","item"
"1171",2080,143,"M",25,"English",32,2,"shovels",TRUE,1,1253,"negative","nothing"
"1172",2081,177,"F",55,"English",1,2,"buckets",FALSE,1,2954,"negative","item"
"1173",2082,177,"F",55,"English",2,2,"shovels",FALSE,1,1863,"positive","nothing"
"1174",2083,177,"F",55,"English",3,0,"forks",FALSE,1,1075,"negative","item"
"1175",2084,177,"F",55,"English",4,2,"guitars",TRUE,1,1395,"positive","item"
"1176",2085,177,"F",55,"English",5,2,"apples",FALSE,1,1914,"positive","nothing"
"1177",2086,177,"F",55,"English",6,3,"daisies",TRUE,1,1424,"positive","item"
"1178",2087,177,"F",55,"English",7,2,"lollipops",TRUE,1,2175,"positive","item"
"1179",2088,177,"F",55,"English",8,1,"carrots",FALSE,1,1405,"negative","item"
"1180",2089,177,"F",55,"English",9,3,"umbrellas",FALSE,1,1373,"positive","nothing"
"1181",209,80,"M",35,"English",17,3,"cats",FALSE,1,1141,"negative","item"
"1182",2090,177,"F",55,"English",10,0,"ice cream cones",TRUE,1,1227,"positive","item"
"1183",2091,177,"F",55,"English",11,1,"purses",TRUE,1,1884,"positive","item"
"1184",2092,177,"F",55,"English",12,0,"plants",FALSE,1,1586,"positive","nothing"
"1185",2093,177,"F",55,"English",13,2,"crayons",FALSE,1,1205,"negative","item"
"1186",2094,177,"F",55,"English",14,1,"kites",TRUE,1,1441,"positive","item"
"1187",2095,177,"F",55,"English",15,0,"bows",TRUE,1,1865,"negative","nothing"
"1188",2096,177,"F",55,"English",16,0,"cakes",FALSE,1,2557,"positive","nothing"
"1189",2097,177,"F",55,"English",17,1,"phones",FALSE,1,1200,"positive","nothing"
"1190",2098,177,"F",55,"English",18,0,"fish",FALSE,1,1445,"negative","item"
"1191",2099,177,"F",55,"English",19,1,"rainboots",TRUE,1,1773,"negative","nothing"
"1192",21,279,"M",35,"English",21,0,"mittens",FALSE,1,874,"negative","item"
"1193",210,80,"M",35,"English",18,2,"dogs",TRUE,1,1115,"positive","item"
"1194",2100,177,"F",55,"English",20,1,"cats",FALSE,1,1681,"positive","nothing"
"1195",2101,177,"F",55,"English",21,3,"bananas",TRUE,1,1849,"positive","item"
"1196",2102,177,"F",55,"English",22,3,"presents",TRUE,1,1784,"negative","nothing"
"1197",2103,177,"F",55,"English",23,1,"cookies",TRUE,1,1442,"negative","nothing"
"1198",2104,177,"F",55,"English",24,2,"balloons",TRUE,1,1151,"negative","nothing"
"1199",2105,177,"F",55,"English",25,3,"pencils",FALSE,1,1230,"negative","item"
"1200",2106,177,"F",55,"English",26,0,"scissors",TRUE,1,2067,"negative","nothing"
"1201",2107,177,"F",55,"English",27,3,"flowers",FALSE,1,2080,"positive","nothing"
"1202",2108,177,"F",55,"English",28,0,"donuts",TRUE,1,1178,"positive","item"
"1203",2109,177,"F",55,"English",29,3,"keys",FALSE,1,1740,"negative","item"
"1204",211,80,"M",35,"English",19,2,"carrots",FALSE,1,2473,"negative","item"
"1205",2110,177,"F",55,"English",30,3,"cars",TRUE,1,1282,"negative","nothing"
"1206",2111,177,"F",55,"English",31,1,"dogs",FALSE,1,1140,"negative","item"
"1207",2112,177,"F",55,"English",32,2,"mittens",TRUE,1,1102,"negative","nothing"
"1208",2113,154,"F",45,"english",1,1,"crayons",FALSE,1,2021,"positive","nothing"
"1209",2114,154,"F",45,"english",2,0,"bananas",FALSE,1,4328,"positive","nothing"
"1210",2115,154,"F",45,"english",3,2,"plants",FALSE,1,2439,"negative","item"
"1211",2116,154,"F",45,"english",4,2,"cookies",FALSE,1,4812,"positive","nothing"
"1212",2117,154,"F",45,"english",5,2,"carrots",FALSE,1,1872,"negative","item"
"1213",2118,154,"F",45,"english",6,0,"cakes",TRUE,1,2046,"negative","nothing"
"1214",2119,154,"F",45,"english",7,2,"phones",TRUE,1,3670,"positive","item"
"1215",212,80,"M",35,"English",20,0,"pencils",FALSE,1,1096,"positive","nothing"
"1216",2120,154,"F",45,"english",8,3,"daisies",FALSE,1,3657,"positive","nothing"
"1217",2121,154,"F",45,"english",9,3,"ice cream cones",FALSE,1,1641,"negative","item"
"1218",2122,154,"F",45,"english",10,1,"mittens",TRUE,1,3321,"negative","nothing"
"1219",2123,154,"F",45,"english",11,0,"shovels",TRUE,1,2889,"positive","item"
"1220",2124,154,"F",45,"english",12,3,"purses",FALSE,1,4908,"negative","item"
"1221",2125,154,"F",45,"english",13,0,"flowers",TRUE,1,1466,"positive","item"
"1222",2126,154,"F",45,"english",14,2,"forks",TRUE,1,6396,"negative","nothing"
"1223",2127,154,"F",45,"english",15,2,"kites",FALSE,1,26134,"positive","nothing"
"1224",2128,154,"F",45,"english",16,1,"umbrellas",TRUE,1,6019,"positive","item"
"1225",2129,154,"F",45,"english",17,3,"buckets",FALSE,1,3926,"positive","nothing"
"1226",213,80,"M",35,"English",21,3,"cakes",TRUE,1,1672,"positive","item"
"1227",2130,154,"F",45,"english",18,0,"dogs",FALSE,1,3221,"negative","item"
"1228",2131,154,"F",45,"english",19,0,"donuts",FALSE,1,2315,"positive","nothing"
"1229",2132,154,"F",45,"english",20,2,"pencils",TRUE,1,8660,"positive","item"
"1230",2133,154,"F",45,"english",21,1,"presents",FALSE,0,3563,"negative","nothing"
"1231",2134,154,"F",45,"english",22,0,"cats",TRUE,1,3661,"negative","nothing"
"1232",2135,154,"F",45,"english",23,2,"fish",TRUE,1,4412,"negative","nothing"
"1233",2136,154,"F",45,"english",24,1,"apples",TRUE,0,14101,"positive","nothing"
"1234",2137,154,"F",45,"english",25,0,"cars",FALSE,1,9552,"negative","item"
"1235",2138,154,"F",45,"english",26,1,"lollipops",FALSE,1,4609,"negative","item"
"1236",2139,154,"F",45,"english",27,3,"balloons",TRUE,1,2878,"negative","nothing"
"1237",214,80,"M",35,"English",22,2,"daisies",FALSE,1,1004,"positive","nothing"
"1238",2140,154,"F",45,"english",28,3,"bows",FALSE,0,2753,"positive","item"
"1239",2141,154,"F",45,"english",29,1,"rainboots",FALSE,0,3081,"positive","item"
"1240",2142,154,"F",45,"english",30,3,"keys",TRUE,1,1938,"positive","item"
"1241",2143,154,"F",45,"english",31,1,"guitars",FALSE,1,1266,"negative","item"
"1242",2144,154,"F",45,"english",32,3,"scissors",TRUE,1,3204,"negative","nothing"
"1243",2145,427,"M",35,"English",1,1,"daisies",TRUE,1,1213,"positive","item"
"1244",2146,427,"M",35,"English",2,0,"flowers",FALSE,1,1192,"negative","item"
"1245",2147,427,"M",35,"English",3,2,"cats",FALSE,1,952,"positive","nothing"
"1246",2148,427,"M",35,"English",4,1,"scissors",FALSE,1,1125,"positive","nothing"
"1247",2149,427,"M",35,"English",5,3,"fish",FALSE,1,1399,"negative","item"
"1248",215,80,"M",35,"English",23,0,"plants",TRUE,1,1346,"negative","nothing"
"1249",2150,427,"M",35,"English",6,2,"balloons",FALSE,1,1240,"negative","item"
"1250",2151,427,"M",35,"English",7,2,"keys",FALSE,1,2066,"negative","item"
"1251",2152,427,"M",35,"English",8,1,"bananas",FALSE,1,1503,"positive","nothing"
"1252",2153,427,"M",35,"English",9,0,"dogs",FALSE,1,1247,"negative","item"
"1253",2154,427,"M",35,"English",10,3,"cookies",TRUE,1,1142,"negative","nothing"
"1254",2155,427,"M",35,"English",11,0,"kites",TRUE,1,1375,"negative","nothing"
"1255",2156,427,"M",35,"English",12,2,"carrots",TRUE,1,1168,"positive","item"
"1256",2157,427,"M",35,"English",13,2,"forks",FALSE,1,829,"positive","nothing"
"1257",2158,427,"M",35,"English",14,2,"pencils",TRUE,1,818,"negative","nothing"
"1258",2159,427,"M",35,"English",15,3,"mittens",TRUE,1,1512,"negative","nothing"
"1259",216,80,"M",35,"English",24,1,"cars",FALSE,1,940,"positive","nothing"
"1260",2160,427,"M",35,"English",16,3,"cakes",FALSE,1,1542,"negative","item"
"1261",2161,427,"M",35,"English",17,0,"guitars",TRUE,1,1225,"negative","nothing"
"1262",2162,427,"M",35,"English",18,1,"cars",TRUE,1,963,"negative","nothing"
"1263",2163,427,"M",35,"English",19,1,"phones",TRUE,1,1376,"negative","nothing"
"1264",2164,427,"M",35,"English",20,1,"ice cream cones",FALSE,0,1023,"positive","item"
"1265",2165,427,"M",35,"English",21,0,"plants",FALSE,1,1449,"positive","nothing"
"1266",2166,427,"M",35,"English",22,1,"buckets",FALSE,1,2043,"negative","item"
"1267",2167,427,"M",35,"English",23,3,"purses",FALSE,1,1326,"positive","nothing"
"1268",2168,427,"M",35,"English",24,2,"apples",TRUE,1,853,"positive","item"
"1269",2169,427,"M",35,"English",25,0,"presents",TRUE,1,1114,"positive","item"
"1270",217,80,"M",35,"English",25,1,"lollipops",FALSE,1,1113,"negative","item"
"1271",2170,427,"M",35,"English",26,3,"umbrellas",TRUE,1,1009,"positive","item"
"1272",2171,427,"M",35,"English",27,3,"donuts",FALSE,1,797,"positive","nothing"
"1273",2172,427,"M",35,"English",28,2,"lollipops",TRUE,1,969,"negative","nothing"
"1274",2173,427,"M",35,"English",29,0,"bows",TRUE,1,905,"positive","item"
"1275",2174,427,"M",35,"English",30,3,"shovels",TRUE,1,1211,"positive","item"
"1276",2175,427,"M",35,"English",31,0,"rainboots",FALSE,1,2011,"positive","nothing"
"1277",2176,427,"M",35,"English",32,1,"crayons",FALSE,1,1410,"negative","item"
"1278",2177,386,"F",45,"english",1,3,"phones",FALSE,1,1909,"positive","nothing"
"1279",2178,386,"F",45,"english",2,1,"mittens",FALSE,1,1324,"positive","nothing"
"1280",2179,386,"F",45,"english",3,1,"donuts",FALSE,1,1001,"negative","item"
"1281",218,80,"M",35,"English",26,0,"umbrellas",TRUE,1,991,"positive","item"
"1282",2180,386,"F",45,"english",4,2,"cookies",FALSE,1,952,"positive","nothing"
